Time,Acce_X,Acce_Y,Acce_Z,Gyro_X,Gyro_Y,Gyro_Z,Gravity_X,Gravity_Y,Gravity_Z,Roll,Pitch,Yaw,Heart_Rate
18:12:39,-0.004417046904563904,-0.00834113359451294,0.030607759952545166,0.0017201583832502365,-0.007034219801425934,0.013221888802945614,0.17865720391273499,0.5375160574913025,-0.8241105079650879,0.2134844511211013,-0.5674886803121243,0.11600381538721556,71
18:12:39,-0.009310618042945862,-0.01945251226425171,0.01174318790435791,-0.041976720094680786,-0.00024901703000068665,0.0011681560426950455,0.17781338095664978,0.5388768315315247,-0.8234040141105652,0.21268318386031207,-0.5691031946812797,0.11913158431580555,71
18:12:40,-0.006126299500465393,-0.005383729934692383,0.03423261642456055,-0.03461441025137901,0.04021931067109108,0.008776540867984295,0.17494946718215942,0.5345430374145508,-0.8268352150917053,0.2085138551806554,-0.5639669645764486,0.11668887332020365,71
18:12:40,0.013903886079788208,-0.004818379878997803,0.027208983898162842,-0.006575852632522583,-0.023730376735329628,0.0008512400090694427,0.17162765562534332,0.5438042879104614,-0.8214747905731201,0.20596357424562461,-0.5749636681038339,0.11548527510489466,71
18:12:40,0.006493598222732544,0.0029444098472595215,0.026151299476623535,0.09546555578708649,0.0006916094571352005,-0.023518014699220657,0.1780155599117279,0.5477907061576843,-0.8174569606781006,0.21441988401565337,-0.5797211723134483,0.1191632602444853,71
18:12:40,0.0013456791639328003,-0.0036339759826660156,0.003986001014709473,0.1149231418967247,0.017978189513087273,-0.006543027237057686,0.1808898150920868,0.5470903515815735,-0.8172949552536011,0.2178161334395826,-0.5788842858574377,0.11936189066445971,71
18:12:40,-0.0010476559400558472,-0.035525381565093994,0.021594464778900146,-0.05064797028899193,-0.006322357803583145,0.00838692020624876,0.18126891553401947,0.5421925783157349,-0.8204686641693115,0.2174404184045111,-0.5730443208791216,0.11736118880240569,71
18:12:40,0.0005754530429840088,0.0031291842460632324,0.0053174495697021484,-0.028673166409134865,-0.01754198968410492,0.007035098969936371,0.17873018980026245,0.5413184762001038,-0.8216019868850708,0.21420138587912788,-0.5720044353174236,0.11538971799100758,71
18:12:40,0.0025198757648468018,-0.01156383752822876,0.023184657096862793,0.14842890202999115,0.015339529141783714,0.04656839370727539,0.18162278831005096,0.5353816747665405,-0.8248512744903564,0.2167301188902332,-0.5649595888354243,0.1165567906691514,71
18:12:40,0.014617115259170532,-0.050052762031555176,0.014303624629974365,-0.1038331687450409,-0.0005805827677249908,0.12733674049377441,0.18687479197978973,0.5308256149291992,-0.826620876789093,0.22233334822020642,-0.5595744491955061,0.12744726869402465,71
18:12:40,0.029556632041931152,0.02323228120803833,0.0740056037902832,0.411241352558136,-0.036168668419122696,-0.013117306865751743,0.1866905242204666,0.5142116546630859,-0.8370980024337769,0.2194301182452473,-0.5400882011927501,0.11855540333946263,71
18:12:40,-0.018156856298446655,-0.030263543128967285,-0.0017229318618774414,0.11772719025611877,-0.040873147547245026,-0.04461264982819557,0.18597257137298584,0.5091441869735718,-0.840349018573761,0.21779373545368047,-0.534190125426914,0.12394633049172638,71
18:12:41,-0.01156933605670929,-0.007955074310302734,-0.010158538818359375,0.007302944548428059,-0.0042589399963617325,0.061502605676651,0.1824215203523636,0.5010873079299927,-0.845951497554779,0.21238840774431958,-0.5248547152244553,0.12047467691147853,71
18:12:41,-0.0181293785572052,-0.00010165572166442871,0.00041353702545166016,0.025544265285134315,0.15847671031951904,0.18645785748958588,0.19381847977638245,0.49468323588371277,-0.8471852540969849,0.22490873441747905,-0.5174703015437678,0.13225775184686434,71
18:12:41,-0.007198750972747803,0.00606614351272583,0.02345365285873413,-0.20770922303199768,0.20474593341350555,0.315019816160202,0.22047021985054016,0.49678581953048706,-0.8394026160240173,0.25684989516598106,-0.5198913189723456,0.15995358750860064,71
18:12:41,0.02543899416923523,-0.00019446015357971191,-0.011385738849639893,-0.09129820019006729,0.14717718958854675,0.30185261368751526,0.2474943846464157,0.4997965395450592,-0.830030083656311,0.28978182681432135,-0.5233638539695588,0.19727589486624306,71
18:12:41,0.03569072484970093,0.042430222034454346,0.029168367385864258,-0.354282945394516,0.1691027283668518,0.5439544320106506,0.2814473509788513,0.5055423378944397,-0.8156067132949829,0.3322826113628818,-0.5300104253134772,0.24800017161979465,71
18:12:41,0.01915985345840454,0.03372621536254883,0.08828586339950562,-0.11136911809444427,-0.061744339764118195,0.730718195438385,0.31955406069755554,0.5042213201522827,-0.802275538444519,0.3790483019379138,-0.5284800081643571,0.32644150741159766,71
18:12:41,0.011186301708221436,-0.04384914040565491,0.07937967777252197,0.14067724347114563,-0.21292373538017273,0.7125815749168396,0.34011563658714294,0.47655630111694336,-0.810688316822052,0.3972363587091868,-0.49673343325253055,0.4014545487954266,71
18:12:41,-0.012417376041412354,-0.054944396018981934,0.013396978378295898,-0.052989691495895386,-0.354308545589447,0.44327661395072937,0.35105451941490173,0.45800378918647766,-0.8166965246200562,0.4059688964718221,-0.4757483226761211,0.46753772630900325,71
18:12:41,-0.029575198888778687,-0.08329367637634277,-0.02362847328186035,-0.10753549635410309,-0.45370200276374817,0.04908294975757599,0.32542678713798523,0.4526616632938385,-0.8301776051521301,0.3735878904716608,-0.4697480650344777,0.49080637695376866,71
18:12:41,-0.004967629909515381,0.00125962495803833,-0.01808232069015503,-0.003916952759027481,-0.3020389676094055,0.10825759172439575,0.3006818890571594,0.45482394099235535,-0.8382872939109802,0.34439183569247944,-0.4721745305186293,0.5049508912025175,71
18:12:42,-0.014663785696029663,-0.05118000507354736,-0.00935828685760498,0.19933682680130005,-0.2615993916988373,-0.056734561920166016,0.2761376202106476,0.4425666630268097,-0.8531604409217834,0.3130233644993916,-0.4584589015129862,0.5031560265021214,61
18:12:42,-0.0007507503032684326,-0.009167522192001343,0.009567081928253174,0.1844681352376938,-0.2159576117992401,-0.11801362782716751,0.2537713348865509,0.4323688745498657,-0.8652498126029968,0.28529186648884064,-0.4471182702621963,0.48779760682972034,61
18:12:42,0.00703960657119751,0.0011347830295562744,0.008388102054595947,0.39531564712524414,-0.217352032661438,-0.13340164721012115,0.2328433096408844,0.4152461588382721,-0.8794058561325073,0.25883402527281674,-0.42821339117645585,0.4692438805671215,61
18:12:42,-0.004034250974655151,-0.017226964235305786,0.008072078227996826,0.25704169273376465,-0.13519272208213806,-0.12718528509140015,0.21024107933044434,0.38464251160621643,-0.8988041281700134,0.2297806581523947,-0.39482051806504764,0.4447355988650543,61
18:12:42,-0.02382349967956543,-0.034426480531692505,0.004331529140472412,0.0650181695818901,-0.03717081993818283,-0.0407278947532177,0.2011607140302658,0.37635987997055054,-0.9043713808059692,0.21886840450855766,-0.3858641445051074,0.43586624363465953,61
18:12:42,-0.005514234304428101,-0.018577784299850464,0.016665279865264893,0.0138362105935812,-0.02007199265062809,-0.058465346693992615,0.19601966440677643,0.3722449243068695,-0.907198965549469,0.21279990013626426,-0.3814266116410281,0.429713489101128,61
18:12:42,-0.013204187154769897,-0.018827348947525024,0.011609792709350586,0.048705779016017914,-0.02385900728404522,-0.013862991705536842,0.19099900126457214,0.3676116466522217,-0.910154402256012,0.20685178441381238,-0.3764395243285871,0.4215660738643137,61
18:12:42,-0.015321016311645508,-0.03276759386062622,0.008955240249633789,-0.027065150439739227,0.0702832043170929,0.07574731856584549,0.19316156208515167,0.36685752868652344,-0.9100022912025452,0.20916046692505574,-0.37562876659251127,0.4237362361020922,61
18:12:42,0.007017701864242554,0.014796316623687744,-0.004207730293273926,-0.050034113228321075,0.0068288641050457954,-0.04218411445617676,0.2042243778705597,0.3698309063911438,-0.9063760042190552,0.22161872377981912,-0.3788270248821816,0.4330308364912087,61
18:12:42,0.010788366198539734,-0.006761312484741211,0.0328482985496521,0.1319711059331894,-0.22213880717754364,-0.1335528939962387,0.1913899928331375,0.3677526116371155,-0.910015344619751,0.20729399738051366,-0.3765911121647465,0.42379548632430725,61
18:12:43,0.021842166781425476,-0.07454171776771545,0.049723148345947266,-0.11411909759044647,-0.24879519641399384,-0.23081821203231812,0.16268190741539001,0.3673720955848694,-0.9157359600067139,0.17581725950073893,-0.3761819680461393,0.4011959624479155,61
18:12:43,0.0016002058982849121,0.0311049222946167,-0.004498422145843506,0.08425790816545486,-0.23568390309810638,-0.05241438001394272,0.13842934370040894,0.3769751489162445,-0.9158204197883606,0.15001774303119375,-0.38652832089638406,0.3892530521794439,61
18:12:43,-0.0533328652381897,-0.12190958857536316,-4.875659942626953e-05,0.12350651621818542,0.12457307428121567,-0.07690640538930893,0.13370059430599213,0.36627820134162903,-0.9208498597145081,0.14418505465564097,-0.3750061105195265,0.3901066884026994,61
18:12:43,-0.04798993468284607,-0.047260940074920654,-0.009931683540344238,-0.2291570007801056,0.08673381060361862,-0.09030716866254807,0.1415564864873886,0.3685948848724365,-0.9187489151954651,0.15287313631812724,-0.37749703139927687,0.38612015752651135,61
18:12:43,-0.00960606336593628,0.024411290884017944,-0.004355430603027344,-0.14007000625133514,0.10984446108341217,0.024496380239725113,0.14763665199279785,0.3836534023284912,-0.9115993976593018,0.16055934174237874,-0.39374920094376464,0.3847480120767046,61
18:12:43,-0.022824257612228394,0.027443021535873413,-0.015150308609008789,-0.12239699065685272,0.14624693989753723,0.16399089992046356,0.16039703786373138,0.39140963554382324,-0.9061298370361328,0.17519848381201011,-0.4021629536580341,0.3965222256883923,61
18:12:43,-0.015854567289352417,0.003343254327774048,-0.015637457370758057,-0.08964783698320389,0.3090593218803406,0.21507485210895538,0.18928541243076324,0.3930026590824127,-0.8998444080352783,0.20733073100131957,-0.4038947096331132,0.4192621228939361,61
18:12:43,0.015124991536140442,0.040373414754867554,-0.01733297109603882,0.1833176463842392,0.440834641456604,0.33147311210632324,0.23238715529441833,0.3898622691631317,-0.8910688161849976,0.2551134868325543,-0.4004820217684644,0.44831188367936825,61
18:12:43,0.01303398609161377,-0.033312201499938965,0.0074111223220825195,0.2711755931377411,0.4040502607822418,0.3488861620426178,0.28213128447532654,0.35527175664901733,-0.8911699652671814,0.30660235049863077,-0.36320476552096154,0.4741543980521745,61
18:12:43,0.0015762150287628174,-0.026091575622558594,0.06265604496002197,0.30860447883605957,0.30119284987449646,0.28117451071739197,0.32464051246643066,0.3229046165943146,-0.8890113234519958,0.35012510415558745,-0.32879692129299376,0.4973479294316083,61
18:12:44,-0.001427382230758667,-0.030447721481323242,0.047511398792266846,0.16429255902767181,0.13994909822940826,0.15548449754714966,0.3533550798892975,0.2950190305709839,-0.8877522349357605,0.378809928344671,-0.2994754241415756,0.5122346769281412,61
18:12:44,0.003515958786010742,-0.038492828607559204,0.0035948753356933594,-0.14198561012744904,0.01049523800611496,0.053810060024261475,0.3615342676639557,0.29146745800971985,-0.8856295347213745,0.3875749394775869,-0.2957605482000125,0.5231952005499417,61
18:12:44,0.003397524356842041,-0.04012686014175415,0.056180357933044434,-0.2025192677974701,0.027604451403021812,0.003451284021139145,0.364643394947052,0.2997695505619049,-0.8815743923187256,0.3921987433041987,-0.3044510922197149,0.5304439353180589,61
18:12:44,-0.01228111982345581,-0.008315443992614746,0.04084908962249756,-0.7256155014038086,0.21764123439788818,0.22404544055461884,0.37723973393440247,0.33456265926361084,-0.8635728359222412,0.4118530232795059,-0.34114109211634897,0.5578851356051416,61
18:12:44,0.01643437147140503,-0.013666927814483643,0.04122781753540039,-0.41327863931655884,-0.0742579996585846,0.16430088877677917,0.3906233608722687,0.3590182065963745,-0.8476552367210388,0.4318219977153544,-0.3672157406096621,0.5889543131901136,61
18:12:44,0.0033069252967834473,-0.008023738861083984,-0.0541113018989563,-0.23697498440742493,0.08889470994472504,0.027170727029442787,0.3934967815876007,0.38941603899002075,-0.8327757716178894,0.4414166186737432,-0.3999975000476381,0.6211918243755294,61
18:12:44,0.006121397018432617,-0.01092568039894104,0.0171663761138916,-0.029826048761606216,-0.03980628401041031,-0.007623738143593073,0.393062561750412,0.39598003029823303,-0.8298805356025696,0.44233609895243287,-0.4071348618219848,0.6248280578390398,61
18:12:44,0.004692256450653076,0.0062142908573150635,0.010134696960449219,-0.013957604765892029,-0.02751978673040867,-0.0003264108672738075,0.3910737633705139,0.39844757318496704,-0.8296390175819397,0.44048915236635366,-0.40982364664924725,0.6255748052028941,61
18:12:44,0.0036376118659973145,-0.010040134191513062,0.013344764709472656,0.049550797790288925,0.005479173734784126,0.017890144139528275,0.3911517262458801,0.3965744376182556,-0.8304992914199829,0.4401664124561725,-0.4077822986769928,0.6252755386290506,61
18:12:44,-0.0001277923583984375,-0.015508204698562622,0.027477383613586426,0.02526596561074257,0.014096897095441818,0.004760759882628918,0.3923840820789337,0.3931618332862854,-0.8315398693084717,0.4408967344628706,-0.4040678321755183,0.6247544545890387,61
18:12:45,-0.002785027027130127,-0.003293842077255249,0.0073972344398498535,0.047500960528850555,-0.029978686943650246,-0.016338666900992393,0.39125701785087585,0.39130809903144836,-0.8329440951347351,0.43913793334190154,-0.4020525954401099,0.6226360172244357,61
18:12:45,0.006570249795913696,-0.0028213560581207275,0.0016851425170898438,0.09401307255029678,-0.041092853993177414,-0.01783003658056259,0.38690683245658875,0.38500693440437317,-0.8378978371620178,0.4325895406951656,-0.39521533077281834,0.6166472077325947,61
18:12:45,0.0038115382194519043,-0.01028403639793396,0.019043445587158203,0.042150937020778656,-0.0044938307255506516,0.01546134240925312,0.3861252963542938,0.3806591033935547,-0.8402416110038757,0.43075967268271986,-0.3905089410270898,0.6144357818477292,61
18:12:45,-0.008116543292999268,-0.011949360370635986,0.022458791732788086,0.06315262615680695,0.09844586998224258,0.022414855659008026,0.3901797831058502,0.3739778995513916,-0.8413681387901306,0.43422483195561773,-0.38329444606166047,0.6141246978924839,61
18:12:45,-0.011605143547058105,0.001492530107498169,-0.001962900161743164,0.04971511662006378,0.28822219371795654,0.05218660086393356,0.40755388140678406,0.3713850677013397,-0.8342499136924744,0.4544274314493217,-0.3805003447119442,0.6161907467652178,61
18:12:45,0.0035869181156158447,0.0015928447246551514,0.001700282096862793,0.05835094675421715,0.32012391090393066,0.05486441031098366,0.43793973326683044,0.365898460149765,-0.8211742639541626,0.4899384906978715,-0.374598022246042,0.6243865024309551,61
18:12:45,0.014659523963928223,-0.014867186546325684,0.03092360496520996,0.004103422164916992,0.02619403973221779,0.028002701699733734,0.4546228051185608,0.36267462372779846,-0.8135018348693848,0.5096099156451109,-0.3711363390922988,0.6286214828570944,61
18:12:45,0.002265065908432007,-0.004611670970916748,0.011821627616882324,-0.004728950560092926,-0.03139468654990196,0.035947710275650024,0.45194149017333984,0.36032310128211975,-0.8160368204116821,0.5057750145443046,-0.3686142370921414,0.6291589937400082,61
18:12:45,0.0038259029388427734,-0.006977826356887817,0.011732220649719238,0.0030605290085077286,-0.049708180129528046,0.001846197061240673,0.4503806531429291,0.3602325916290283,-0.8169392347335815,0.5038426634565318,-0.3685172203657081,0.6310534664559571,61
18:12:45,0.007803678512573242,-0.005313515663146973,0.025568842887878418,-0.03226310759782791,-0.012860685586929321,-0.0037187449634075165,0.4487527310848236,0.36195576190948486,-0.8170734643936157,0.502243835055813,-0.37036505247560486,0.6324862712377853,61
18:12:46,-0.0002911388874053955,-0.0013479292392730713,0.001921534538269043,-0.002968069165945053,0.0018599387258291245,0.0071781100705266,0.44818058609962463,0.3629645109176636,-0.8169400095939636,0.5017745757205073,-0.371447409471473,0.6333688818907164,61
18:12:46,-0.0027729272842407227,-0.011671870946884155,0.014809608459472656,-0.0027747247368097305,0.0189739428460598,-0.004739001858979464,0.4490906000137329,0.3634311854839325,-0.816232442855835,0.5029962705978199,-0.37194828978715533,0.6335725990622816,61
18:12:46,-0.010476738214492798,-0.0082072913646698,0.01875925064086914,-0.009999614208936691,0.0924747884273529,-0.00035836827009916306,0.45429182052612305,0.3633691966533661,-0.813376784324646,0.5093652746967939,-0.3718817619520696,0.6341398595739389,61
18:12:46,0.00642627477645874,-0.010195791721343994,0.017748713493347168,-0.04572991281747818,0.06920036673545837,0.010454332455992699,0.46192479133605957,0.3644115626811981,-0.8085973858833313,0.5190240985235416,-0.3730008327552097,0.6358186573663939,61
18:12:46,0.01878267526626587,-0.011777997016906738,0.028579235076904297,-0.06710337847471237,0.040970586240291595,0.04415610432624817,0.46713078022003174,0.3688925802707672,-0.8035590052604675,0.5265764045804088,-0.37781729870522496,0.6420118564253916,61
18:12:46,-0.0030002593994140625,-0.013808906078338623,0.025471031665802002,-0.054723143577575684,-0.04841841384768486,0.019022520631551743,0.46828359365463257,0.37139633297920227,-0.8017326593399048,0.5286384208204289,-0.38051247672610383,0.6470321827562986,61
18:12:46,-0.004290461540222168,-0.006588399410247803,0.008249998092651367,-0.024900533258914948,-0.044646576046943665,-0.008921496570110321,0.46380579471588135,0.37304097414016724,-0.8035699129104614,0.5234722702005171,-0.38228442255089357,0.6479984991156009,61
18:12:46,0.006029188632965088,0.00014421343803405762,0.005079984664916992,-0.0005866698920726776,-0.01663651317358017,0.005816170945763588,0.4623514711856842,0.374670147895813,-0.8036500215530396,0.5220705558473577,-0.3840409845405681,0.6494004948744405,61
18:12:46,-0.0045802295207977295,-0.007250368595123291,0.02346658706665039,-0.010217193514108658,-0.020222995430231094,-0.005092137027531862,0.4610285758972168,0.3751220107078552,-0.8041990995407104,0.5205381679988883,-0.3845283846978484,0.650334628151387,61
18:12:46,0.0017255544662475586,0.003964543342590332,0.012863516807556152,-0.008529549464583397,0.014130452647805214,-0.031390585005283356,0.4606736898422241,0.3776704967021942,-0.8032090663909912,0.5207374558603315,-0.3872791675426888,0.6500351046260663,61
18:12:47,0.0013377070426940918,-0.001324087381362915,0.020087003707885742,-0.051306307315826416,-0.02746705710887909,-0.04493542015552521,0.4585436284542084,0.38242489099502563,-0.8021776080131531,0.5192931022996097,-0.3924192394430848,0.6475492965645625,61
18:12:47,0.0007733702659606934,0.005504965782165527,0.017138361930847168,-0.005015240982174873,-0.0238582082092762,-0.026935650035738945,0.4551864266395569,0.38540709018707275,-0.8026622533798218,0.5158738125324657,-0.39564896289839097,0.6452729547707952,61
18:12:47,-0.0007789134979248047,-0.005952954292297363,0.005863666534423828,-0.019648779183626175,-0.027455871924757957,-0.030561279505491257,0.45193201303482056,0.3870992362499237,-0.803686261177063,0.5122556888176568,-0.3974834622767405,0.6428327117028073,61
18:12:47,0.009736418724060059,0.0014040172100067139,0.020746350288391113,-0.00021888874471187592,-0.010346660390496254,-0.01594957895576954,0.4496564269065857,0.38853129744529724,-0.8042714595794678,0.5097918029063204,-0.39903712910247113,0.6402615713185202,61
18:12:47,0.0005337297916412354,-0.006337404251098633,0.015772879123687744,0.014158984646201134,0.007969229482114315,0.00958800595253706,0.45005476474761963,0.3879414498806,-0.8043333888053894,0.5101362482752595,-0.39839708010209224,0.6407716063472114,61
18:12:47,-0.0072345733642578125,-0.004641622304916382,0.019223570823669434,0.009350649081170559,-0.0019278749823570251,-0.0013429387472569942,0.4504377245903015,0.38720688223838806,-0.8044729232788086,0.5104248003376551,-0.39760021008102336,0.6410885935870758,61
18:12:47,0.004492521286010742,-0.0014080405235290527,0.02006620168685913,-0.01637895032763481,-0.012934187427163124,-0.0025549433194100857,0.44949862360954285,0.38791003823280334,-0.8046594262123108,0.5094369404198394,-0.39836299883903986,0.6403488625946633,61
18:12:47,-6.312131881713867e-05,-0.0028904080390930176,0.014784514904022217,0.004405691288411617,-0.007996421307325363,0.002229425124824047,0.4491867125034332,0.3879275918006897,-0.8048251271247864,0.5090538206842536,-0.39838203676105055,0.6404542224364981,61
18:12:47,0.0001265108585357666,-0.0013436675071716309,0.014691829681396484,0.013077742420136929,0.0042581139132380486,-0.002527779433876276,0.4489971697330475,0.3873575031757355,-0.8052054047584534,0.508673259680926,-0.39776358698129255,0.6405532169997199,61
18:12:47,0.0030488967895507812,-0.004845619201660156,0.016829490661621094,0.03484908491373062,-0.016613345593214035,0.012912696227431297,0.4490196108818054,0.38596129417419434,-0.805863082408905,0.5083473374822552,-0.3962496234783733,0.6397957088705459,61
18:12:48,0.0030471980571746826,0.018008887767791748,0.007240235805511475,-0.010332243517041206,0.03743524104356766,0.016009684652090073,0.45004361867904663,0.38567453622817993,-0.8054290413856506,0.5095458271491324,-0.39593879872125337,0.6397098657989662,61
18:12:48,-0.0003101229667663574,-0.05025136470794678,0.05612897872924805,-0.8587250709533691,0.06592307984828949,0.0803455337882042,0.4530651271343231,0.39642420411109924,-0.7984859943389893,0.516107858371619,-0.40761863386903824,0.6502116557731149,61
18:12:48,0.0004844069480895996,0.01855599880218506,0.004481673240661621,-0.7845959663391113,0.007238724268972874,0.026189617812633514,0.46232596039772034,0.47997504472732544,-0.7455727458000183,0.5550643551421158,-0.5006262736025037,0.7214098427928752,61
18:12:48,0.0049269795417785645,0.0017892718315124512,0.01629471778869629,-0.31029924750328064,-0.11065249145030975,-0.01926414854824543,0.45763909816741943,0.5103673338890076,-0.7280739545822144,0.5611561451406064,-0.5356118880716324,0.7482944878801209,61
18:12:48,0.008235335350036621,0.010102391242980957,0.025349140167236328,0.031731586903333664,-0.14278832077980042,-0.05120929703116417,0.4429479241371155,0.5206242203712463,-0.7298955917358398,0.5454518538177496,-0.5475819092746027,0.7494559919693867,61
18:12:48,-0.009183943271636963,-7.581710815429688e-05,0.010557889938354492,0.09919345378875732,-0.050969988107681274,-0.04211593419313431,0.4359683096408844,0.518595278263092,-0.7355206608772278,0.5350599349470052,-0.5452071884370231,0.7434663756240919,61
18:12:48,-0.012820929288864136,0.007202208042144775,0.019609451293945312,0.2831883132457733,-0.09012457728385925,-0.06629450619220734,0.42785632610321045,0.5064042806625366,-0.7486613392829895,0.5191963097593337,-0.5310097553372888,0.72554986729042,61
18:12:48,-0.0031898021697998047,-0.010553479194641113,0.016982674598693848,-0.008831020444631577,0.006625133566558361,-0.01447844784706831,0.42277225852012634,0.49776220321655273,-0.7572954297065735,0.5091672806506141,-0.5210167272025272,0.7136359406669947,61
18:12:48,0.002069801092147827,0.00808858871459961,0.016640126705169678,0.06193210184574127,0.00893222913146019,0.0034273145720362663,0.4233870804309845,0.4957824945449829,-0.7582500576972961,0.5092496258527041,-0.5187356446680087,0.7107656443550512,61
18:12:48,-0.002266824245452881,-0.004875361919403076,0.02026379108428955,0.02899625524878502,0.012704065069556236,-0.0036817267537117004,0.42479389905929565,0.49257203936576843,-0.759554386138916,0.5099303225042423,-0.5150427337563569,0.7084430718498511,61
18:12:49,-0.0022523999214172363,-0.00880613923072815,0.01676887273788452,0.07220204919576645,0.015230072662234306,-0.02564135566353798,0.42532873153686523,0.4891785681247711,-0.7614458799362183,0.5094069415341036,-0.5111476967223285,0.7043315387730386,61
18:12:49,-0.0015358924865722656,-0.00019371509552001953,0.012278616428375244,0.021709846332669258,0.01260179840028286,-0.010875457897782326,0.4256191551685333,0.48840901255607605,-0.7617775201797485,0.5095121970740332,-0.5102655843321162,0.7013431807719601,61
18:12:49,0.0018250346183776855,-0.0024531781673431396,0.011806488037109375,0.01931779459118843,0.02386457286775112,-0.0072029586881399155,0.4266832768917084,0.48676228523254395,-0.7622361183166504,0.5103195708505218,-0.5083794700184194,0.6987734715251965,61
18:12:49,-0.004885733127593994,-0.0004621744155883789,0.021223902702331543,0.037513308227062225,0.015255637466907501,0.0035309121012687683,0.42793118953704834,0.4837639629840851,-0.7634443640708923,0.5108894223147517,-0.5049503317545804,0.6957330498072839,61
18:12:49,-0.0031900405883789062,-0.000733494758605957,0.013450264930725098,0.037511445581912994,0.011407904326915741,-0.0012891432270407677,0.4282800555229187,0.481120765209198,-0.7649176716804504,0.5104148474289887,-0.501932718548492,0.6931510444827625,61
18:12:49,0.0003656148910522461,-0.004838347434997559,0.01762157678604126,0.0314658023416996,0.006581990048289299,-0.006172581110149622,0.4286457896232605,0.4788626730442047,-0.7661287784576416,0.5101043349219155,-0.49935871863136916,0.6908122297350645,61
18:12:49,-0.005508542060852051,-0.00491642951965332,0.011661291122436523,0.0635790005326271,0.0017576739192008972,-0.024527352303266525,0.42867574095726013,0.47649919986724854,-0.7675843238830566,0.5093257290030367,-0.49666849424434034,0.6878519158679041,61
18:12:49,0.002535015344619751,0.005473315715789795,0.006355166435241699,0.04267318546772003,0.01266571506857872,-0.0194534994661808,0.42902427911758423,0.4739827811717987,-0.7689463496208191,0.5089171112503943,-0.49380843443844613,0.6823809051196663,61
18:12:49,-0.0036066174507141113,-0.0016305744647979736,0.005082607269287109,0.04668843001127243,0.024957001209259033,-0.041136156767606735,0.4293062686920166,0.4708019495010376,-0.7707409858703613,0.5082050822534706,-0.490199557633458,0.677050903721839,61
18:12:49,-0.008883774280548096,-0.0024944543838500977,0.020559728145599365,0.033900730311870575,0.0004551224410533905,-0.006242622155696154,0.42907488346099854,0.46867501735687256,-0.7721648216247559,0.5071919621765651,-0.48779027522913465,0.6721594595050152,61
18:12:50,-0.0017269253730773926,0.0018043220043182373,0.013633787631988525,0.005779348313808441,-0.00809229351580143,-0.01105175819247961,0.4278840124607086,0.4668632745742798,-0.7739211320877075,0.5050501495254501,-0.4857404379845324,0.6690865550420858,61
18:12:50,0.00011086463928222656,-0.01054370403289795,0.018842220306396484,0.008289909921586514,0.0029363883659243584,-0.013374833390116692,0.42751097679138184,0.4649899899959564,-0.77525395154953,0.5039529701474929,-0.4836233188330715,0.6660500525537144,61
18:12:50,0.000981748104095459,-0.0011236369609832764,0.010617613792419434,0.015504946932196617,0.007695989683270454,-0.00605646800249815,0.42718955874443054,0.4644201397895813,-0.7757725715637207,0.5033524045096973,-0.48297974977221697,0.6645497484636623,61
18:12:50,-0.006766527891159058,-0.008391022682189941,0.01169663667678833,0.031446099281311035,0.004187808372080326,-0.003794911317527294,0.4275676906108856,0.4628525674343109,-0.7765007019042969,0.5033298502811915,-0.48121053529944746,0.6627671532861599,61
18:12:50,-0.0022196173667907715,-0.006812632083892822,0.01710432767868042,0.01702294871211052,0.010358618572354317,-0.021830370649695396,0.4279037415981293,0.4617626667022705,-0.7769644260406494,0.5034095564125067,-0.47998137567722543,0.6600115371792115,61
18:12:50,-0.0032021403312683105,-0.004891514778137207,0.011279761791229248,0.014298268593847752,0.013880382291972637,-0.004800254944711924,0.42795535922050476,0.46083325147628784,-0.777487576007843,0.5031761294878662,-0.47893385215050727,0.6579361482036594,61
18:12:50,-0.004281878471374512,-0.00452461838722229,0.016073226928710938,-0.0002745501697063446,0.013965071178972721,-0.012021148577332497,0.4285010099411011,0.46045106649398804,-0.7774134874343872,0.5037548597746359,-0.4785032694223159,0.6568807516902095,61
18:12:50,-0.0014390945434570312,-0.008000403642654419,0.014620959758758545,0.029031941667199135,-0.005776409059762955,-0.012295987457036972,0.42863357067108154,0.459532231092453,-0.7778838872909546,0.5036299320726294,-0.4774684710417001,0.6554719376158983,61
18:12:50,-0.0024494528770446777,-0.0004699230194091797,0.015366792678833008,0.03013981506228447,0.00044553354382514954,-0.00017540901899337769,0.42816394567489624,0.4578765034675598,-0.7791178822517395,0.5024973633011665,-0.47560513244917013,0.6535679805385756,61
18:12:50,-0.007713019847869873,-0.018817782402038574,0.008466541767120361,-0.002781115472316742,0.017690567299723625,-0.005942218005657196,0.42860573530197144,0.4556708037853241,-0.7801675200462341,0.502364426505374,-0.4731256427388804,0.6518308723515649,61
18:12:51,-0.0035088658332824707,-0.009381085634231567,0.015683650970458984,0.02551257237792015,0.020080754533410072,-0.015698708593845367,0.42875033617019653,0.45503851771354675,-0.7804570198059082,0.5023501907603936,-0.4724154531604217,0.6498831097153667,61
18:12:51,0.017626583576202393,-0.025092244148254395,0.015550017356872559,0.11422327160835266,0.06045161187648773,-0.04711895063519478,0.42929738759994507,0.44923460483551025,-0.7835125923156738,0.5012401171102178,-0.46590844154217503,0.6408649162131106,61
18:12:51,0.02676650881767273,-0.037863969802856445,0.02987658977508545,0.020298104733228683,-0.019090615212917328,0.0008645551279187202,0.42993858456611633,0.4423838257789612,-0.7870510816574097,0.4999712277036118,-0.4582550093521814,0.630494424108753,62
18:12:51,-0.01563739776611328,0.0017301440238952637,0.037580788135528564,-0.05362272262573242,-0.11095449328422546,-0.07471329718828201,0.4240484833717346,0.4472842812538147,-0.7874768376350403,0.49396352758769135,-0.46372662902775286,0.6299200311606228,62
18:12:51,-0.02194845676422119,0.03419691324234009,0.007529497146606445,0.008578598499298096,-0.08758978545665741,-0.048172228038311005,0.41481098532676697,0.4545818269252777,-0.7882177233695984,0.48443774692176783,-0.47190267595514473,0.6273940015068648,62
18:12:51,-0.005679219961166382,0.008318096399307251,-0.010253071784973145,0.07252482324838638,-0.03633085638284683,0.028318550437688828,0.4090699553489685,0.45262816548347473,-0.7923316955566406,0.4765915518547654,-0.46971050301530565,0.6241171334098147,62
18:12:51,-0.00662386417388916,-0.002331376075744629,0.0018843412399291992,0.15954014658927917,-0.004596894606947899,0.028290055692195892,0.40902280807495117,0.4421902000904083,-0.7982281446456909,0.4735289386857631,-0.45803910043501406,0.6212165210063681,62
18:12:51,-0.04060649871826172,-0.01606687903404236,0.02772390842437744,0.11703929305076599,-0.011808201670646667,0.002957534044981003,0.4094819128513336,0.4308251738548279,-0.8041854500770569,0.47097131064116066,-0.44540696883214964,0.6138361968164984,62
18:12:51,-0.02637118101119995,0.0039006173610687256,2.181529998779297e-05,-0.4199303984642029,0.15807005763053894,0.32519975304603577,0.41555580496788025,0.43008363246917725,-0.8014620542526245,0.4783356076595273,-0.4445854074150134,0.6253808682774012,62
18:12:51,0.021602630615234375,-0.020132839679718018,-0.030392765998840332,-0.5838184356689453,0.3714108169078827,0.2602044939994812,0.44959738850593567,0.45959439873695374,-0.7659211158752441,0.53080749541141,-0.47753846024121405,0.6858456189124206,62
18:12:52,0.020759493112564087,-0.0098133385181427,0.036562323570251465,0.11481981724500656,0.11197260022163391,0.010210918262600899,0.47283995151519775,0.4671274721622467,-0.7471373677253723,0.5642377898727883,-0.4860392149828006,0.7042518757042064,62
18:12:52,-0.013488709926605225,0.014617085456848145,0.04879486560821533,0.3578428626060486,-0.09536594897508621,0.019321061670780182,0.4726642370223999,0.4504791498184204,-0.7574015259742737,0.5579233095305144,-0.4673019696486345,0.691540291380148,62
18:12:52,0.007536947727203369,0.026207268238067627,-0.016839802265167236,0.6867176294326782,-0.061372824013233185,0.06550133973360062,0.4681027829647064,0.4118051528930664,-0.7818543910980225,0.5394692558665672,-0.4244340846691993,0.668373806479751,62
18:12:52,0.023180484771728516,-0.027797013521194458,-0.013392031192779541,0.5298537611961365,0.09441756457090378,0.014418181031942368,0.4748896360397339,0.35910564661026,-0.803444504737854,0.5338253300874772,-0.3673094528471629,0.6406211457137111,62
18:12:52,-0.014247149229049683,0.011921852827072144,-0.019237875938415527,0.4259832799434662,0.11801477521657944,-0.08177067339420319,0.4819828271865845,0.32137104868888855,-0.8151154518127441,0.534002469117414,-0.3271769807339125,0.6089736917329508,62
18:12:52,-0.025199174880981445,-0.005613386631011963,0.01967465877532959,0.181723490357399,0.0800788402557373,-0.05206630378961563,0.4883114695549011,0.2995847761631012,-0.8196346163749695,0.5373013696458097,-0.3042574010920114,0.5865172668636678,62
18:12:52,-0.019953012466430664,-0.016113728284835815,0.03352224826812744,0.18511608242988586,-0.03636201471090317,-0.05441121757030487,0.4889095425605774,0.28850942850112915,-0.8232434391975403,0.5359089031848203,-0.29266970323218683,0.5725694109571979,62
18:12:52,-0.0031583011150360107,-0.025126904249191284,0.02713555097579956,0.06577903777360916,-0.11706937104463577,-0.028120756149291992,0.47962239384651184,0.28191301226615906,-0.8309557437896729,0.5234813408793242,-0.28578741765386456,0.5634111464654654,62
18:12:52,-0.006319403648376465,-0.01451188325881958,0.012975573539733887,0.06787574291229248,-0.04614806920289993,0.007685177028179169,0.4716295599937439,0.2762420177459717,-0.8374102711677551,0.5129211374950514,-0.2798817516859017,0.5584176088732292,62
18:12:52,-0.009195446968078613,-0.03179454803466797,0.03297924995422363,0.1143505647778511,-0.15845677256584167,-0.17760053277015686,0.46364155411720276,0.2679969072341919,-0.844520092010498,0.5020751454123238,-0.2713132920713679,0.5454547934119507,62
18:12:53,-0.05024188756942749,-0.07927346229553223,0.00463944673538208,-0.7050907611846924,0.33631646633148193,0.1743665635585785,0.4646182954311371,0.2851257920265198,-0.8383514285087585,0.5060656458293127,-0.28913766665465557,0.5511026841021265,62
18:12:53,0.0005764365196228027,-0.02224862575531006,0.012965559959411621,-0.6641122102737427,0.44447755813598633,-0.017190344631671906,0.5123709440231323,0.35097894072532654,-0.7837663888931274,0.5789922891585046,-0.35861635278958726,0.6150323408324764,62
18:12:53,0.012867510318756104,-0.020993739366531372,0.0726366639137268,-0.6355655193328857,0.02439907006919384,-0.11944108456373215,0.5233798623085022,0.40038248896598816,-0.7521750926971436,0.6079163102250745,-0.41193422260510204,0.6400167889774818,62
18:12:53,0.0010703802108764648,0.025247424840927124,-0.0034444332122802734,-0.3995782732963562,0.013052405789494514,-0.09748944640159607,0.5201776623725891,0.44639530777931213,-0.7281115651130676,0.6203385518380452,-0.462732959546952,0.6665199090406904,62
18:12:53,0.0037398338317871094,0.011473238468170166,-0.006913542747497559,-0.3096443712711334,-0.016321726143360138,-0.04979276284575462,0.5169285535812378,0.4709114730358124,-0.7148616909980774,0.6260727299651433,-0.4903237004324489,0.6790157719528536,62
18:12:53,0.012730538845062256,-0.0052453577518463135,0.009105980396270752,-0.06184762716293335,-0.05456365644931793,0.0008560335263609886,0.5131716728210449,0.48462387919425964,-0.7083746194839478,0.6269380377294609,-0.5059331344355048,0.6883912256637416,62
18:12:53,-0.005106329917907715,-0.008342087268829346,-0.01246333122253418,-0.02853255160152912,-0.0227681752294302,-0.012264295481145382,0.5100277662277222,0.4911842942237854,-0.7061229944229126,0.6255316198514309,-0.5134488551878383,0.6973278380535257,62
18:12:53,-0.0075299739837646484,-0.00904381275177002,0.014971494674682617,0.016703635454177856,-0.02770754136145115,-0.007657825946807861,0.508316159248352,0.491290807723999,-0.7072821855545044,0.6231593097958216,-0.5135711331072437,0.6979587301790438,62
18:12:53,-0.0031545162200927734,-0.002505064010620117,0.013567447662353516,0.00932801142334938,-0.005547111853957176,0.0010227467864751816,0.5069008469581604,0.49064192175865173,-0.7087467908859253,0.6208594593423536,-0.5128262867056798,0.697223430345022,62
18:12:53,0.0017881989479064941,0.0029772818088531494,0.014076769351959229,0.022340215742588043,-0.005793187767267227,0.028863966464996338,0.5073599815368652,0.4895848035812378,-0.709149181842804,0.6210192475904931,-0.5116135374213576,0.6981033907789962,62
18:12:54,-0.010646343231201172,-0.008881241083145142,0.01446223258972168,0.003962008282542229,-0.0070645809173583984,0.02773664891719818,0.5085180401802063,0.48819854855537415,-0.7092754244804382,0.6220143051081275,-0.510024416519738,0.7003792674653938,62
18:12:54,-0.00541079044342041,-0.0010714232921600342,0.014662861824035645,0.01882084831595421,-0.027813002467155457,0.014138549566268921,0.5076921582221985,0.4867668151855469,-0.7108493447303772,0.620196062145,-0.5083846298637812,0.701440821791605,62
18:12:54,-0.004821360111236572,-0.001975923776626587,0.0127335786819458,0.031553685665130615,-0.07807697355747223,0.05835741013288498,0.5056836009025574,0.48376500606536865,-0.7143217325210571,0.6160225775578433,-0.5049515098803953,0.7033815368446944,62
18:12:54,-0.0066950321197509766,-0.005123347043991089,0.013152718544006348,-0.014908885583281517,-0.05377402901649475,0.05160363391041756,0.5036662220954895,0.48006123304367065,-0.7182350158691406,0.6115680268699267,-0.5007244996358355,0.7077967661325383,62
18:12:54,-0.006818056106567383,-0.0032263994216918945,-0.0006870627403259277,0.003561468794941902,-0.07325105369091034,0.04403519257903099,0.5004775524139404,0.47773653268814087,-0.7220041751861572,0.6061328729844813,-0.4980763823908806,0.71237287874451,62
18:12:54,-0.01075667142868042,0.0010230839252471924,0.014223933219909668,-0.0010636448860168457,-0.026557588949799538,0.035999640822410583,0.49890750646591187,0.4758824408054352,-0.7243115901947021,0.6031711532224223,-0.49596708618906704,0.715973344634248,62
18:12:54,0.00037473440170288086,-0.0007252991199493408,0.029719531536102295,0.0076052118092775345,-0.06468446552753448,0.10821205377578735,0.49947935342788696,0.4727020561695099,-0.725998044013977,0.6026199791270634,-0.4923545219851905,0.7222271841716276,62
18:12:54,-0.010309040546417236,0.02032601833343506,-0.008328616619110107,0.12495341151952744,-0.09780087321996689,0.11948759853839874,0.49624744057655334,0.46452951431274414,-0.7334513664245605,0.5948426682314049,-0.4831032390777631,0.7301867418435543,62
18:12:54,-0.00030422210693359375,0.0027354955673217773,0.007082879543304443,0.2719074487686157,-0.07474695146083832,0.12156727910041809,0.49756482243537903,0.4444008469581604,-0.7449410557746887,0.5888733309540624,-0.46050533108582203,0.7288755862907113,62
18:12:54,0.0030053555965423584,-0.009354352951049805,-0.0019478797912597656,0.38763564825057983,-0.0230757724493742,0.004171403124928474,0.49503302574157715,0.4149411618709564,-0.7633912563323975,0.575295844976114,-0.4278781184553921,0.7136375013083126,62
18:12:55,0.004140615463256836,0.019515126943588257,0.010676383972167969,0.2433682084083557,-0.03414120525121689,-0.019489984959363937,0.49337899684906006,0.39489156007766724,-0.7750082612037659,0.5669054739853736,-0.40594981646308403,0.6940150432464757,62
18:12:55,0.0025702714920043945,-0.011316508054733276,0.03277546167373657,0.4046417772769928,-0.13104590773582458,0.08050692081451416,0.48716744780540466,0.36348313093185425,-0.7940704822540283,0.5502916282483006,-0.37200404190828423,0.6750936883580453,62
18:12:55,-0.013851463794708252,0.004977047443389893,0.032444536685943604,0.22658070921897888,-0.2157783806324005,0.2716286778450012,0.48063984513282776,0.33545586466789246,-0.810218870639801,0.5354209395911109,-0.3420890929958256,0.6722523232888523,62
18:12:55,0.009301215410232544,0.06608790159225464,0.07119452953338623,0.8517833352088928,-0.908716082572937,0.4498697817325592,0.45348992943763733,0.28756001591682434,-0.8435971140861511,0.49324761260405964,-0.29167828514424865,0.6932164161461457,62
18:12:55,-0.005726337432861328,-0.07904952764511108,-0.03317064046859741,1.1122381687164307,-0.888839602470398,0.2250736802816391,0.37057265639305115,0.16275635361671448,-0.9144322276115417,0.38502310646106147,-0.16348361504897896,0.6689656567681981,62
18:12:55,-0.03169208765029907,-0.06979569792747498,-0.04241585731506348,0.4593449831008911,-0.16613945364952087,-0.06415412575006485,0.32518917322158813,0.08152826130390167,-0.9421280026435852,0.3323605791522119,-0.08161884899599393,0.6399599260011556,62
18:12:55,-0.006187260150909424,-0.007989630103111267,0.02258962392807007,0.043225258588790894,-0.04848712310194969,0.021038532257080078,0.3188037872314453,0.06311854720115662,-0.9457167983055115,0.32513925245315783,-0.0631605295396701,0.6304900289649823,62
18:12:55,-0.005271285772323608,-0.023203909397125244,0.01714426279067993,0.15402820706367493,-0.09017571061849594,-0.02822142466902733,0.3101365566253662,0.051904819905757904,-0.9492740631103516,0.3157770343224484,-0.05192815360253689,0.6281227290572251,62
18:12:55,-0.016276240348815918,-0.01593116670846939,0.030208289623260498,0.45992395281791687,-0.197845458984375,-0.1987774521112442,0.29607170820236206,0.01615978218615055,-0.9550290107727051,0.30061780998790566,-0.016160484823832654,0.6031719538459124,62
18:12:55,-0.034965962171554565,-0.08042491227388382,-0.014558136463165283,-1.2136101722717285,0.6084878444671631,0.24085770547389984,0.3121672570705414,0.04503902420401573,-0.9489589333534241,0.3178072340444958,-0.045054265800953876,0.618313269956949,62
18:12:56,-0.0043852925300598145,-0.033614382147789,0.02229154109954834,-0.24043601751327515,0.422313928604126,-0.10145942121744156,0.3664093017578125,0.1166660487651825,-0.9231106638908386,0.3778560775188688,-0.11693234092330636,0.6520732742697333,62
18:12:56,-0.004456937313079834,-0.00462689995765686,0.014149844646453857,-0.27593913674354553,0.39411455392837524,-0.10883158445358276,0.40363529324531555,0.1474466621875763,-0.9029607176780701,0.42036727628945025,-0.1479862219375725,0.6544545516790179,62
18:12:56,0.003964871168136597,0.004637598991394043,0.0014646649360656738,-0.10284486413002014,0.25416114926338196,-0.07940737903118134,0.4300335645675659,0.16712774336338043,-0.8872087597846985,0.45133603781929493,-0.16791570893124813,0.6518393874444854,62
18:12:56,0.004378199577331543,9.059906005859375e-06,0.0013636946678161621,0.09897480905056,0.3145139813423157,-0.21768882870674133,0.4511503577232361,0.172732874751091,-0.8755722641944885,0.4757836480758415,-0.17360358368475784,0.6410236473896932,62
18:12:56,3.8951635360717773e-05,0.0123872309923172,0.013035178184509277,0.040936268866062164,0.3205513656139374,-0.184690922498703,0.47588977217674255,0.17939740419387817,-0.8610142469406128,0.5049201853185737,-0.1803738898045699,0.6215344242917606,62
18:12:56,-0.01193198561668396,-0.007741302251815796,0.020418286323547363,0.02160411886870861,0.15638533234596252,-0.14508625864982605,0.49413150548934937,0.18330569565296173,-0.8498429656028748,0.5266595961050023,-0.18434808285031687,0.6036504549871966,62
18:12:56,-0.013541698455810547,-0.011639297008514404,0.011553406715393066,0.15199275314807892,0.010416941717267036,-0.12645772099494934,0.49726754426956177,0.18428939580917358,-0.8477985858917236,0.5304634361456565,-0.18534882526867608,0.5868634760470826,62
18:12:56,-0.013849347829818726,-0.03668701648712158,0.03173798322677612,0.018161715939641,-0.044766418635845184,-0.11551345139741898,0.4911056458950043,0.18330571055412292,-0.8515951633453369,0.523102766257681,-0.18434809746591002,0.5680831138587891,62
18:12:56,-0.006457716226577759,-0.004626020789146423,0.009250044822692871,-0.04934035986661911,0.01771853119134903,-0.004539530724287033,0.48826122283935547,0.1875758022069931,-0.8523005843162537,0.520235383393684,-0.18869355876438793,0.5628170585058164,62
18:12:56,-0.0049558281898498535,-0.013472944498062134,0.004296660423278809,-0.008620895445346832,0.009045680053532124,-0.030170591548085213,0.4882698059082031,0.19007501006126404,-0.8517417907714844,0.5205259263889668,-0.1912385564146753,0.5615645820088108,62
18:12:57,0.0024667978286743164,-0.010694622993469238,0.014425218105316162,-0.014905957505106926,0.0054112644866108894,-0.018096351996064186,0.48911768198013306,0.19118773937225342,-0.8510059714317322,0.5216481437455499,-0.19237206218368744,0.5593406605098586,62
18:12:57,-0.010664939880371094,-0.006884843111038208,0.014194965362548828,-0.00986405834555626,0.011666761711239815,-0.02414705418050289,0.48946255445480347,0.1927490085363388,-0.8504552841186523,0.5222325117939223,-0.1939629296732243,0.5584391117820231,62
18:12:57,-0.011156916618347168,-0.009128928184509277,0.002696514129638672,0.0008927155286073685,-0.012870272621512413,-0.009907398372888565,0.48856598138809204,0.19404703378677368,-0.850675642490387,0.521328353792495,-0.19528592121512608,0.5574095384351282,62
18:12:57,-0.004126816987991333,-0.005994886159896851,0.005990028381347656,0.0031944848597049713,0.0004631113260984421,-6.408896297216415e-05,0.48838695883750916,0.19336959719657898,-0.8509326577186584,0.5210396558549745,-0.1945954115372994,0.5556260976287649,62
18:12:57,-0.0060533881187438965,-0.01009640097618103,0.010801315307617188,0.02274235337972641,0.009016118943691254,0.004780467599630356,0.48930624127388,0.19107764959335327,-0.8509222865104675,0.5218571766805683,-0.19225991278012683,0.555028592063455,62
18:12:57,-0.0065070390701293945,-0.011777311563491821,0.01645606756210327,0.014111580327153206,0.021260268986225128,0.010987764224410057,0.4911942780017853,0.1893101930618286,-0.8502293229103088,0.5238758388904412,-0.1904595854877772,0.5551387886860316,62
18:12:57,-0.005761235952377319,-0.009571671485900879,0.008003830909729004,0.01067929994314909,-0.001914292573928833,-0.00861043855547905,0.49198946356773376,0.18812686204910278,-0.8500321507453918,0.5246773382691156,-0.18925459888879664,0.5543627643271888,62
18:12:57,-0.005685299634933472,-0.004994899034500122,0.0040552616119384766,0.02635732851922512,0.01034583430737257,0.012001361697912216,0.49292048811912537,0.18600670993328094,-0.8499593734741211,0.5255345379485685,-0.1870963607160218,0.5531973252273125,62
18:12:57,-0.008610039949417114,-0.004992812871932983,0.01472938060760498,0.029828492552042007,-0.008112266659736633,0.021508846431970596,0.4923357367515564,0.18302921950817108,-0.8509441018104553,0.524517500244705,-0.18406683846024433,0.5529944710261627,62
18:12:57,-0.003441333770751953,0.004457533359527588,0.005281329154968262,0.08110472559928894,-0.0829300507903099,0.01816365122795105,0.49018794298171997,0.17852266132831573,-0.8531385660171509,0.521511162366342,-0.17948478916600447,0.5534707452969136,62
18:12:58,-0.00043594837188720703,-0.010971635580062866,0.005583047866821289,0.20756547152996063,-0.1773255169391632,-0.021994154900312424,0.4784547686576843,0.16506719589233398,-0.8624580502510071,0.5064881869046669,-0.16582614554762748,0.5465875388276283,62
18:12:58,-0.026077091693878174,-0.017048031091690063,0.011137723922729492,0.1900932639837265,-0.12814518809318542,-0.07471595704555511,0.4643624424934387,0.15150582790374756,-0.8725901246070862,0.4890477506905383,-0.15209150454318468,0.5326614044457388,62
18:12:58,-0.01655629277229309,-0.012979209423065186,-0.0003609657287597656,0.03556707128882408,-0.043687574565410614,-0.04779459536075592,0.45597097277641296,0.1416236013174057,-0.8786542415618896,0.4786864785019474,-0.14210135958767728,0.5197843438070748,62
18:12:58,-0.0053174495697021484,-0.005978792905807495,-0.00451737642288208,0.08187571167945862,-0.0007140059024095535,-0.019785594195127487,0.45458918809890747,0.13955175876617432,-0.8797010779380798,0.47696092566566883,-0.14000873476510842,0.5164441777561436,66
18:12:58,-0.012889206409454346,-0.012789994478225708,0.018251001834869385,0.08298519253730774,-0.03029586561024189,-0.021231159567832947,0.4526851773262024,0.1330574005842209,-0.8816869854927063,0.47433438253233035,-0.13345317987598182,0.5109204725990282,66
18:12:58,-0.018620550632476807,-0.019149459898471832,0.021436750888824463,0.11889764666557312,-0.10730170458555222,-0.05969386175274849,0.44569113850593567,0.1237158253788948,-0.8865967392921448,0.46580433818020217,-0.12403360739578755,0.5008022297555159,66
18:12:58,-0.04354751110076904,-0.06536068022251129,-0.0058092474937438965,-0.270479679107666,0.30177128314971924,0.09118087589740753,0.45218539237976074,0.1278584897518158,-0.8827120661735535,0.4734139985053873,-0.12820943984791464,0.5056451630948917,66
18:12:58,-0.010757356882095337,-0.038767993450164795,0.012197613716125488,-0.5099660158157349,0.3341340124607086,-0.024958521127700806,0.48726582527160645,0.16245298087596893,-0.858009934425354,0.5164838274940117,-0.16317615140753272,0.5263141425371799,66
18:12:58,-0.016163766384124756,-0.034758687019348145,0.03432589769363403,-0.31173524260520935,0.21168455481529236,-0.12017292529344559,0.5051079988479614,0.19260762631893158,-0.8412896394729614,0.5407115741679046,-0.19381884718776116,0.5362469217376696,66
18:12:58,-0.0022663474082946777,-0.008011281490325928,0.033592283725738525,-0.3738798201084137,0.17146869003772736,-0.23648515343666077,0.518980860710144,0.22805427014827728,-0.8238022923469543,0.5621740435370635,-0.23007882864032286,0.5355879747274777,66
18:12:59,0.006756424903869629,0.02618291974067688,0.021500706672668457,-0.3485265374183655,0.026722144335508347,-0.15086132287979126,0.5220882296562195,0.270778626203537,-0.80876624584198,0.5732311094141007,-0.27420176856367084,0.541409919240636,66
18:12:59,0.014724493026733398,0.018021196126937866,0.010905742645263672,-0.20841257274150848,-0.12059993296861649,-0.0403185673058033,0.5156008005142212,0.29905110597610474,-0.8029472827911377,0.5708265495621123,-0.3036980908452427,0.549585652812364,66
18:12:59,0.006343543529510498,0.007996618747711182,0.004826188087463379,-0.21311624348163605,-0.11823291331529617,0.033536218106746674,0.505839467048645,0.31397363543510437,-0.8034594058990479,0.5618837694069323,-0.31937541719818485,0.5598453428588867,66
18:12:59,-0.005249917507171631,0.0012756586074829102,0.007441401481628418,-0.14181382954120636,-0.14792023599147797,0.09229832887649536,0.49727663397789,0.3250587582588196,-0.8043959736824036,0.5536936276735965,-0.33107384760796693,0.5763839311496517,66
18:12:59,-0.011374115943908691,-0.0021188855171203613,0.019472777843475342,-0.05205491930246353,-0.13935764133930206,0.06901511549949646,0.4895614683628082,0.3293841481208801,-0.8073634505271912,0.5450906235367531,-0.33565124164508314,0.5902951738205368,66
18:12:59,-0.009929478168487549,-0.007729560136795044,0.01616436243057251,-0.14292597770690918,-0.022819310426712036,0.020906440913677216,0.4861789643764496,0.3340180814266205,-0.8075035214424133,0.541944997530395,-0.3405632961237165,0.5959931066383731,66
18:12:59,-0.00785297155380249,0.0008988082408905029,-0.0003705620765686035,-0.04692807048559189,-0.03990454971790314,-0.013566581532359123,0.4832170903682709,0.3406328558921814,-0.806517481803894,0.5397871042184635,-0.34758993404423677,0.6007489166551169,66
18:12:59,-0.004710882902145386,0.004297584295272827,0.005798220634460449,-0.004232270643115044,-0.019079431891441345,0.003386569209396839,0.4810057282447815,0.3430933654308319,-0.8067964315414429,0.537614947278375,-0.3502081890703054,0.601965583197381,66
18:12:59,-0.007247269153594971,-0.0016949176788330078,0.023662805557250977,-0.01660452038049698,-0.027661200612783432,0.01061572041362524,0.4794832766056061,0.34315019845962524,-0.8076779842376709,0.5357421049506835,-0.35026869565514335,0.6027068545989464,66
18:12:59,-0.014657795429229736,0.00047144293785095215,-0.0012868046760559082,0.007006000727415085,-0.020397163927555084,-0.014788706786930561,0.47677722573280334,0.3444780111312866,-0.8087140917778015,0.5327000854197731,-0.3516827142223831,0.6038508683752091,66
18:13:00,-0.007334530353546143,-0.0023789405822753906,0.014792442321777344,0.020734328776597977,0.01275280024856329,-0.025433627888560295,0.4767017364501953,0.3448411226272583,-0.808603823184967,0.5326904716975613,-0.3520695064662995,0.6024392095514685,66
18:13:00,-0.012492567300796509,0.017462342977523804,0.0034461021423339844,-0.004592599347233772,0.047114238142967224,-0.04677912965416908,0.4769918620586395,0.34706375002861023,-0.8074809908866882,0.5335649828588569,-0.3544384230327448,0.597872729295089,66
18:13:00,-0.006562143564224243,-0.0004431009292602539,0.0065871477127075195,0.0363263376057148,0.05555938929319382,0.005180208012461662,0.48136091232299805,0.3463534116744995,-0.8051900267601013,0.5388170431244075,-0.3536811082361898,0.5955133673826283,66
18:13:00,-0.008798360824584961,0.006005287170410156,0.01158595085144043,0.04223882406949997,0.032257791608572006,0.01582086831331253,0.4845429062843323,0.34283462166786194,-0.804787278175354,0.5419443976161148,-0.34993274051330714,0.5937110116142617,66
18:13:00,-0.009694457054138184,0.0002950727939605713,0.023027002811431885,-0.004474354907870293,0.004097526893019676,0.022999949753284454,0.48682764172554016,0.34016790986061096,-0.8045400381088257,0.5441614800887438,-0.3470954403514636,0.5937855748572932,66
18:13:00,-0.006359368562698364,-0.00011894106864929199,0.014123857021331787,-0.005843484774231911,-0.030096132308244705,0.0298935417085886,0.48652881383895874,0.3386591672897339,-0.8053568601608276,0.5434403384779555,-0.34549149104580795,0.595907464680382,66
18:13:00,-0.01002269983291626,0.00041484832763671875,0.01107931137084961,-0.10150182992219925,-0.021594254299998283,0.03767290338873863,0.484805703163147,0.34009361267089844,-0.8057913780212402,0.5416330591336266,-0.3470164550470028,0.6006355467028527,66
18:13:00,-0.015956342220306396,0.0019095838069915771,0.008559107780456543,-0.07198228687047958,-0.005675742402672768,0.03165522590279579,0.4862839877605438,0.34837979078292847,-0.8013485074043274,0.545427941064948,-0.35584204830676425,0.6112310947857253,66
18:13:00,-0.010648488998413086,0.004051029682159424,0.016066789627075195,-0.01792518049478531,-0.04604340344667435,0.014072236604988575,0.4838750958442688,0.3491678237915039,-0.8024628758430481,0.5426133094736343,-0.3566828962760051,0.6138101441658868,66
18:13:00,-0.008369684219360352,0.001005023717880249,0.009317934513092041,-0.015272404998540878,-0.011726709082722664,0.005924827419221401,0.4816572964191437,0.3497876226902008,-0.8035265207290649,0.5399997017775041,-0.35734439579943705,0.6144789851967376,66
18:13:01,-0.006424039602279663,0.00235062837600708,0.005457282066345215,-0.006485039368271828,-0.0019055046141147614,-0.007329192012548447,0.4807187616825104,0.3499221205711365,-0.8040298223495483,0.5388641607869543,-0.35748797216857237,0.6145826831581757,66
18:13:01,-0.008478760719299316,-0.00012686848640441895,0.016077160835266113,0.03868110477924347,-0.028898239135742188,-0.0017280317842960358,0.4797673523426056,0.3479592800140381,-0.8054487109184265,0.5372165027836955,-0.3553934678698453,0.6126162561268189,66
18:13:01,-0.007201731204986572,0.004071414470672607,0.01186072826385498,-0.005403531715273857,-0.022860854864120483,-0.003868415020406246,0.4775443375110626,0.34720948338508606,-0.8070917129516602,0.5342833751501266,-0.354593805991513,0.611178130415585,66
18:13:01,-0.007113158702850342,0.005745589733123779,0.004604637622833252,-0.009137814864516258,-0.02035961113870144,0.0022035930305719376,0.47554847598075867,0.3475189507007599,-0.8081362843513489,0.5318841832450136,-0.35492383397493366,0.6110706224744473,66
18:13:01,-0.01102447509765625,0.0041078925132751465,0.009088516235351562,0.016442112624645233,0.00042316317558288574,0.015615537762641907,0.4750193655490875,0.34668466448783875,-0.8088055849075317,0.5310361483672472,-0.3540342400654867,0.6113141133013892,66
18:13:01,-0.004144638776779175,-0.00654679536819458,0.01961493492126465,0.024229995906352997,-0.014100920408964157,-0.014857149682939053,0.47447192668914795,0.34458303451538086,-0.810024082660675,0.5298759663414649,-0.3517945933556536,0.6103018178452284,66
18:13:01,-0.008345574140548706,0.006750881671905518,0.007710814476013184,0.016928939148783684,-0.004465868696570396,-0.020725425332784653,0.47334733605384827,0.3430802822113037,-0.8113188147544861,0.5281462077619218,-0.35019427234095707,0.6060837191129473,66
18:13:01,-0.004015088081359863,0.001323312520980835,0.009138226509094238,0.003142286092042923,-0.00689200684428215,0.002284819260239601,0.4724653661251068,0.3421449065208435,-0.8122274279594421,0.5268481972656102,-0.34919862702497245,0.6044538768879395,66
18:13:01,-0.010668128728866577,0.0017875432968139648,0.007412910461425781,-0.0005352720618247986,0.00039999373257160187,0.002391078509390354,0.4722519814968109,0.34168070554733276,-0.8125468492507935,0.5264810297949186,-0.34870466716593873,0.6040106308734461,66
18:13:01,-0.006499171257019043,-0.00020992755889892578,0.015757441520690918,-0.0043513160198926926,-0.008189765736460686,0.010795217007398605,0.4729505479335785,0.34071800112724304,-0.8125447630882263,0.5271245553867767,-0.3476804882668055,0.6048928536657893,66
18:13:02,-0.011742234230041504,-0.005310326814651489,0.003180563449859619,0.004514346830546856,-0.0031984690576791763,-0.0073675415478646755,0.47190701961517334,0.3404625654220581,-0.8132582902908325,0.5257836298559688,-0.34740879941727865,0.6048308875286235,66
18:13:02,-0.008238464593887329,0.004610538482666016,0.01655113697052002,0.004286646842956543,0.002893245778977871,0.009638072922825813,0.4727061986923218,0.3402920663356781,-0.8128654360771179,0.5267284266615757,-0.34722748418954624,0.6048370677580922,66
18:13:02,-0.011345654726028442,-0.0052169859409332275,0.015073180198669434,-0.00674043782055378,-0.011853743344545364,0.005927756428718567,0.4724106788635254,0.33934691548347473,-0.8134321570396423,0.5261539796019511,-0.3462225142001444,0.6055029191563854,66
18:13:02,-0.0060555338859558105,0.0016986429691314697,0.01500391960144043,-0.007844051346182823,-0.011836165562272072,-0.002540030051022768,0.4715302586555481,0.33978593349456787,-0.8137596249580383,0.5251696055052215,-0.3466892656233521,0.6052225753223809,66
18:13:02,-0.007773846387863159,0.0055429041385650635,0.01243889331817627,-0.0017653871327638626,-0.003216046839952469,0.0035514188930392265,0.47080716490745544,0.3398784399032593,-0.8141396045684814,0.5243017903984958,-0.34678762890592546,0.6050736102233959,66
18:13:02,-0.014557301998138428,0.00026169419288635254,0.012539565563201904,0.007796159945428371,-0.00815381295979023,0.019198289141058922,0.4712124466896057,0.338781476020813,-0.8143622875213623,0.5245561980016394,-0.3456214948103473,0.6061425338990416,66
18:13:02,-0.005583733320236206,-0.0042244791984558105,0.01973891258239746,-0.013072634115815163,-0.02657436579465866,0.01791331358253956,0.47055497765541077,0.33786606788635254,-0.8151224255561829,0.5235471009863564,-0.34464872304337235,0.6070985898419264,66
18:13:02,-0.006197571754455566,0.0072100162506103516,0.019602060317993164,-0.013801807537674904,-0.08545845746994019,0.05849189683794975,0.4682237505912781,0.3367159366607666,-0.8169387578964233,0.520438525594679,-0.34342698210048117,0.6136828813273364,66
18:13:02,-0.006773650646209717,-0.0020158886909484863,0.0013960599899291992,-0.04591020941734314,-0.01789032854139805,0.004800175316631794,0.4640539884567261,0.33670997619628906,-0.8193169832229614,0.5153405294007156,-0.34342064808704026,0.6163769432639676,66
18:13:02,-0.009174227714538574,0.009384512901306152,0.00812464952468872,-0.014368262141942978,-0.022793740034103394,0.026388823986053467,0.46294501423835754,0.3384930491447449,-0.819209635257721,0.5143712634827688,-0.3453149368845452,0.6184158091333887,66
18:13:03,-0.011671602725982666,0.0013157129287719727,0.010189056396484375,-0.013083819299936295,-0.048503898084163666,0.017659246921539307,0.4610172212123871,0.3382304608821869,-0.8204043507575989,0.5119632301772885,-0.34503589120901257,0.6213509043179476,66
18:13:03,-0.01244315505027771,-0.006158888339996338,0.016397595405578613,-0.005950011312961578,-0.07186461985111237,0.027103617787361145,0.4573482275009155,0.3373583257198334,-0.8228134512901306,0.5073117653131048,-0.3441092991201043,0.6236657162691367,66
18:13:03,-0.00972798466682434,0.0012507736682891846,0.0018245577812194824,-0.010600689798593521,-0.046167243272066116,0.012869818136096,0.45229828357696533,0.33686062693595886,-0.8258033394813538,0.5010810425047353,-0.34358065439915775,0.6247382904999037,66
18:13:03,-0.0032408833503723145,0.0020415186882019043,0.008522570133209229,-0.00306820310652256,-0.022762581706047058,0.006976776756346226,0.45020562410354614,0.336558073759079,-0.8270692825317383,0.49848617954300667,-0.3432593312090033,0.6253660598364854,62
18:13:03,-0.005858510732650757,0.0035879015922546387,0.009192109107971191,-0.005714055150747299,-0.02523745968937874,0.02027740329504013,0.44839826226234436,0.33597299456596375,-0.8282880783081055,0.49618210499247745,-0.3426380931270562,0.6263142312137814,62
18:13:03,-0.010115981101989746,0.006132990121841431,0.012132525444030762,0.010245203040540218,-0.02285126782953739,0.016623545438051224,0.4472389817237854,0.3348928689956665,-0.8293516039848328,0.4945628085842802,-0.34149152174070574,0.627563204094307,62
18:13:03,-0.015077412128448486,0.010374665260314941,0.01624089479446411,0.014815721660852432,-0.031414661556482315,0.039497967809438705,0.44626471400260925,0.3330773115158081,-0.8306065797805786,0.49302158839991966,-0.33956538190111407,0.6298137657635934,62
18:13:03,-0.026425451040267944,0.0038899779319763184,0.036520540714263916,-0.016561109572649002,-0.06578967720270157,0.08649476617574692,0.4447188675403595,0.33017775416374207,-0.8325909972190857,0.49058394787071236,-0.3364918974645825,0.635241758882144,62
18:13:03,0.002376377582550049,0.014726042747497559,0.019345104694366455,0.04342632740736008,-0.14070653915405273,0.16055594384670258,0.44063639640808105,0.32581156492233276,-0.8364725708961487,0.48484078258217606,-0.33187001372530733,0.6481462367008777,62
18:13:03,0.010622531175613403,0.02983766794204712,0.0004975199699401855,0.2396720051765442,-0.20458990335464478,0.21598803997039795,0.4326196312904358,0.30787768959999084,-0.8473792672157288,0.47204273056601626,-0.3129615633213183,0.6612112543708751,62
18:13:04,0.0031914710998535156,-0.00825423002243042,0.034332215785980225,0.17734497785568237,-0.27328401803970337,0.19021397829055786,0.41694894433021545,0.27680206298828125,-0.8657564520835876,0.4488201495304973,-0.2804645421427276,0.6674351628707589,62
18:13:04,-0.008854091167449951,-0.0052412450313568115,0.018053650856018066,0.09890236705541611,-0.29534217715263367,0.18913087248802185,0.3987824618816376,0.260621041059494,-0.8792321681976318,0.4258085036519634,-0.26366542355871925,0.6833748313219558,62
18:13:04,-0.015789419412612915,0.01222047209739685,-0.003890395164489746,0.40510302782058716,-0.34179195761680603,0.09659667313098907,0.3745901882648468,0.23737668991088867,-0.8962892889976501,0.3958708978371957,-0.23966446571144268,0.6891883015630196,62
18:13:04,-0.02030092477798462,-0.009970605373382568,-0.005933582782745361,0.41191139817237854,-0.2595919072628021,0.06467416137456894,0.347440630197525,0.193956196308136,-0.9174236059188843,0.3620222870037937,-0.19519333221204027,0.6796296602905243,62
18:13:04,-0.025653302669525146,-0.004953294992446899,0.001139819622039795,0.22620120644569397,-0.15519945323467255,-0.035187989473342896,0.328318327665329,0.16051259636878967,-0.9308291077613831,0.3390923917883528,-0.16120996316187422,0.6664260349064499,62
18:13:04,-0.01980656385421753,-0.006208181381225586,0.030478060245513916,0.11247969418764114,-0.09999052435159683,-0.0378093346953392,0.31594130396842957,0.1464938521385193,-0.9374009966850281,0.32508250432841135,-0.14702294209653663,0.6566005401317437,62
18:13:04,-0.015743225812911987,-0.005947411060333252,0.010581672191619873,0.03405066952109337,-0.033698588609695435,-0.01993100345134735,0.31009262800216675,0.14240315556526184,-0.9399808049201965,0.31865062650503007,-0.1428888846499097,0.6531693536893953,62
18:13:04,-0.013695597648620605,0.003289550542831421,0.006798863410949707,0.05138678103685379,-0.05456046015024185,-0.03834250196814537,0.30610716342926025,0.14052093029022217,-0.9415690898895264,0.3143252799668362,-0.14098754917745535,0.6492640284022118,62
18:13:04,-0.022032499313354492,0.0020994842052459717,-0.009405732154846191,0.1759236454963684,-0.062217578291893005,-0.017085682600736618,0.3003605008125305,0.12854300439357758,-0.9451245069503784,0.30770596978685993,-0.12889965830880343,0.6415566122470809,62
18:13:04,-0.03709337115287781,-0.041784390807151794,-0.001574695110321045,-0.23914465308189392,0.18562445044517517,0.023305151611566544,0.30364149808883667,0.12877149879932404,-0.9440443515777588,0.3111889919423985,-0.12913006445352584,0.6424495110174349,62
18:13:05,-0.013044655323028564,0.002609625458717346,0.026623964309692383,-0.18414664268493652,0.18690942227840424,-0.05556276813149452,0.3238884508609772,0.1553301215171814,-0.9332571029663086,0.33404584975982066,-0.15596162175843784,0.6499903545473457,62
18:13:05,-0.006570875644683838,0.005059465765953064,0.012077927589416504,-0.23739415407180786,0.12323936074972153,-0.024516966193914413,0.33755630254745483,0.18135276436805725,-0.9236703515052795,0.3503728260275096,-0.18236184638435377,0.6553230353907553,62
18:13:05,-0.02938026189804077,-0.020940393209457397,-0.011241555213928223,-0.18477489054203033,0.23236265778541565,-0.08781445026397705,0.35163742303848267,0.19709834456443787,-0.9151521325111389,0.36684619915024747,-0.19839732292242557,0.655814711476369,62
18:13:05,-0.0449928343296051,-0.02394622564315796,0.006943106651306152,-0.42028939723968506,0.46426618099212646,-0.19229398667812347,0.37823566794395447,0.2269284427165985,-0.8974637985229492,0.39885950258404335,-0.22892267662443808,0.6538427811847852,62
18:13:05,-0.015528380870819092,0.004648864269256592,0.007611751556396484,-0.4385243356227875,0.5038266777992249,-0.3661230504512787,0.41715991497039795,0.2815990149974823,-0.8641062378883362,0.44976447232152805,-0.28546016673324137,0.6473859654488062,62
18:13:05,0.005710959434509277,0.026212453842163086,0.025415778160095215,-0.3041697144508362,0.296265184879303,-0.20890304446220398,0.4416656494140625,0.32410600781440735,-0.8365923166275024,0.48574439002545644,-0.33006655795218776,0.6346018934842819,62
18:13:05,-0.0026872456073760986,0.01738753914833069,0.050721049308776855,-0.07048745453357697,-0.05334259569644928,0.005745064467191696,0.4482784569263458,0.34455758333206177,-0.8248190879821777,0.4978290673591318,-0.35176747395421626,0.6363388520772759,62
18:13:05,0.0007903575897216797,0.011904299259185791,0.002854287624359131,-0.027523212134838104,-0.1343543529510498,0.07013390213251114,0.43979644775390625,0.3472791314125061,-0.8282368779182434,0.4881414838810304,-0.3546680990008406,0.6449986395566417,62
18:13:05,-0.0009757280349731445,0.033658504486083984,0.0018961429595947266,0.021634746342897415,-0.15885624289512634,0.0539565347135067,0.4312630891799927,0.3461090624332428,-0.8331990242004395,0.4776275727359111,-0.35342065602149364,0.6510339008345924,62
18:13:05,-0.018783271312713623,0.0011268258094787598,0.02168327569961548,-0.13250555098056793,-0.04606258124113083,0.0617486797273159,0.42198675870895386,0.3437593877315521,-0.8389021158218384,0.46606279900323155,-0.35091732875964915,0.6571375564458185,62
18:13:06,-0.013128429651260376,0.013534486293792725,0.007680177688598633,-0.05535351485013962,-0.030023425817489624,-0.020716901868581772,0.41837650537490845,0.34805992245674133,-0.8389371037483215,0.46260571193892347,-0.35550082992901955,0.6578518894944095,62
18:13:06,-0.01300346851348877,0.014429688453674316,0.007013380527496338,-0.017257260158658028,0.010325063019990921,-0.024090329185128212,0.4167712330818176,0.351574182510376,-0.8382704257965088,0.46138900137235916,-0.3592521072536465,0.6560749618826529,62
18:13:06,-0.009314239025115967,0.007469117641448975,0.013008654117584229,0.014296671375632286,0.0176697950810194,-0.0011714310385286808,0.41746124625205994,0.3516682982444763,-0.8378875851631165,0.4622311191165106,-0.359352656234257,0.65498080858728,62
18:13:06,-0.010249197483062744,0.005556195974349976,0.01160287857055664,0.005250711925327778,0.021341759711503983,0.03398256003856659,0.418426513671875,0.34917131066322327,-0.8384501934051514,0.46288534592483566,-0.356686599170558,0.6542862545035121,62
18:13:06,-0.010662972927093506,0.006810247898101807,-0.000908970832824707,-0.12119244039058685,0.26614004373550415,0.09384723007678986,0.4331068694591522,0.35235753655433655,-0.8296159505844116,0.4811371637438934,-0.3600889987927596,0.6650375279937752,62
18:13:06,-0.013787984848022461,0.011729240417480469,0.02334737777709961,-0.0026516858488321304,0.16589096188545227,0.011243159882724285,0.451673299074173,0.35615113377571106,-0.8180144429206848,0.5044985949625348,-0.3641456908594101,0.674095105667385,62
18:13:06,-0.007128685712814331,-0.001324087381362915,0.024050772190093994,-0.027729609981179237,0.24064242839813232,-0.02179175429046154,0.46658986806869507,0.35599061846733093,-0.8096694350242615,0.5227897321973144,-0.363973927055468,0.674334350843468,62
18:13:06,0.009958624839782715,-0.03022819757461548,-0.02246725559234619,-1.0782049894332886,0.4991852939128876,-0.2534068822860718,0.4981009066104889,0.4114130437374115,-0.7633052468299866,0.5781713379078108,-0.4240038433362834,0.7056343151643902,62
18:13:06,-0.022359251976013184,0.030078768730163574,0.01572716236114502,-1.4775198698043823,0.14383652806282043,-0.14384709298610687,0.5115586519241333,0.5186907649040222,-0.6850311756134033,0.6414287057147848,-0.5453188874481736,0.770017075949001,62
18:13:06,-0.021496891975402832,0.02618265151977539,0.04558807611465454,-0.7652377486228943,-0.11561582237482071,0.10242872685194016,0.508437991142273,0.5903646349906921,-0.6268656253814697,0.6814604294183108,-0.6315104929233075,0.847364239663246,62
18:13:07,-0.06249910593032837,0.0039879679679870605,0.008195877075195312,-0.4443204402923584,0.06442958116531372,0.04717186838388443,0.5086686015129089,0.6233004927635193,-0.5939299464225769,0.7082241183024197,-0.672956308977456,0.9029484350402313,62
18:13:07,-0.01228863000869751,-0.011990845203399658,0.03243827819824219,-0.39044201374053955,0.07475891709327698,-0.20593389868736267,0.5080946683883667,0.6557880640029907,-0.5583743453025818,0.7382871084641583,-0.7152259989574652,0.9402791259143078,62
18:13:07,-0.007102906703948975,0.03377676010131836,0.0291786789894104,-0.22359977662563324,0.04629265144467354,-0.1463632434606552,0.4963175058364868,0.6775707602500916,-0.5427401661872864,0.7407502089712191,-0.7444545239354704,0.9382373554658686,62
18:13:07,-0.009927839040756226,0.0328829288482666,0.04119467735290527,-0.5980681777000427,0.10257403552532196,0.014289549551904202,0.49769285321235657,0.7076690793037415,-0.5015040636062622,0.7815839035937248,-0.7861937174444086,0.9847877645686028,62
18:13:07,-0.012654542922973633,0.05633962154388428,0.0037177205085754395,-0.17596009373664856,0.07150506228208542,0.035280320793390274,0.503791332244873,0.7278211116790771,-0.4652642011642456,0.8251346434035881,-0.8151392664275557,1.0329761471617083,62
18:13:07,-0.008123517036437988,-0.0029296875,0.02293449640274048,0.36366185545921326,-0.13465875387191772,0.03224591165781021,0.504234790802002,0.7199521064758301,-0.47688165307044983,0.8132705322535472,-0.8037333415292437,1.0183392020562143,62
18:13:07,-0.018156349658966064,0.031670570373535156,-0.006723940372467041,-0.08938871324062347,-0.014215167611837387,0.049779102206230164,0.5007786154747009,0.7143890261650085,-0.48874250054359436,0.7975611355813347,-0.7957505528505089,1.0118837295971483,62
18:13:07,-0.009121596813201904,0.004635512828826904,0.055554211139678955,-0.06533530354499817,0.06553798168897629,0.010499339550733566,0.504530131816864,0.716200590133667,-0.4821889400482178,0.8080361959204384,-0.7983428928336583,1.0211854676508783,62
18:13:07,-0.007433891296386719,0.010223031044006348,0.04113525152206421,0.026276901364326477,0.06800886988639832,0.03068237006664276,0.5092812776565552,0.7170214056968689,-0.47593382000923157,0.819233158437815,-0.7995197208528605,1.028404571773604,62
18:13:07,-0.006668388843536377,0.02310091257095337,0.019459307193756104,0.00044983066618442535,0.02625715732574463,0.027998702600598335,0.5135506391525269,0.7154955267906189,-0.4736369848251343,0.8258078371345385,-0.7973331256921498,1.0302005345184357,62
18:13:08,-0.017415523529052734,0.02106177806854248,0.014175176620483398,0.10835286229848862,0.025036895647644997,0.02025982365012169,0.5155084133148193,0.7136129140853882,-0.4743497967720032,0.8269545504107357,-0.7946420480166267,1.0292171170406126,62
18:13:08,-0.009656012058258057,0.01011890172958374,0.006947159767150879,0.10710197687149048,-0.010654255747795105,0.011502020061016083,0.5177437663078308,0.7050405144691467,-0.48462289571762085,0.8184287934367959,-0.7824802428545761,1.0153636525339687,62
18:13:08,-0.017072200775146484,0.004108309745788574,0.021513044834136963,-0.0054786317050457,0.03841901570558548,0.01365731656551361,0.5196813941001892,0.7012086510658264,-0.4880960285663605,0.8167295339969513,-0.7770913226593625,1.0105976025156493,62
18:13:08,-0.012001633644104004,-0.011833429336547852,0.030767858028411865,-0.07448619604110718,0.03373531252145767,-0.041800081729888916,0.5199511647224426,0.7034018039703369,-0.48464062809944153,0.8205328464212863,-0.7801721787022584,1.011707045599601,62
18:13:08,-0.011325657367706299,0.014351844787597656,0.02867269515991211,-0.0656234622001648,0.03750155493617058,-0.059974826872348785,0.5181918144226074,0.7095190286636353,-0.4775562286376953,0.8261846522269755,-0.788815442478367,1.014965576295471,62
18:13:08,-0.00902777910232544,0.02185124158859253,0.030360817909240723,-0.027692323550581932,0.033511608839035034,0.024594120681285858,0.51828932762146,0.7122884392738342,-0.4733090400695801,0.8307284619780577,-0.7927532076516126,1.01652866287342,62
18:13:08,-0.01820695400238037,0.01423490047454834,0.024519801139831543,-0.02209063246846199,-0.02144565060734749,-0.03287370130419731,0.5181758999824524,0.7135418057441711,-0.4715421199798584,0.8324815864810156,-0.7945405670393106,1.0175330796105932,62
18:13:08,-0.02052783966064453,-0.017769813537597656,0.027113497257232666,-0.05650453269481659,-0.022494137287139893,-0.11020497977733612,0.5121655464172363,0.717607319355011,-0.47193869948387146,0.8262520285927413,-0.8003606801271707,1.0126297740627357,62
18:13:08,-0.0013211369514465332,-0.0037903189659118652,0.07171881198883057,-0.33481845259666443,0.03269881010055542,-0.08065853267908096,0.5052266120910645,0.7328168153762817,-0.45576927065849304,0.8368174693484538,-0.8224525582934785,1.0273236240835495,62
18:13:08,0.0003622770309448242,-0.012409090995788574,0.032049596309661865,-0.5184223651885986,0.04887058958411217,-0.08220289647579193,0.5016058683395386,0.7546801567077637,-0.4229060113430023,0.8703192977551149,-0.8551664942309333,1.0664019402131106,62
18:13:09,0.0007454752922058105,0.07073312997817993,0.009222626686096191,-0.0053625162690877914,-0.03743526712059975,-0.006471388041973114,0.4976370334625244,0.7690259218215942,-0.40119361877441406,0.8922879745255065,-0.8773158832256468,1.0949039276565786,62
18:13:09,-0.037642598152160645,0.018755674362182617,0.001482248306274414,-0.027302436530590057,0.012862254865467548,-0.0034873164258897305,0.4963219165802002,0.7724652290344238,-0.3961845636367798,0.8971287727583563,-0.8827139380629714,1.1053033144301871,62
18:13:09,-0.0009200870990753174,-0.015131711959838867,0.050649285316467285,0.014525704085826874,0.048317719250917435,-0.011765485629439354,0.4971206486225128,0.771455705165863,-0.39714911580085754,0.8967271544894113,-0.8811257915324174,1.099740532209215,62
18:13:09,-0.0017412304878234863,-0.0235326886177063,0.04482179880142212,-0.01907833106815815,0.03596092015504837,0.022161854431033134,0.4999707341194153,0.769586980342865,-0.3971966505050659,0.8994549493473971,-0.8781940579595072,1.0964373803588057,62
18:13:09,-0.0012227296829223633,0.039642274379730225,0.001797020435333252,-0.00044845230877399445,-0.018185941502451897,0.07727064192295074,0.5050365924835205,0.7692625522613525,-0.39137333631515503,0.9115234001336199,-0.8776861776447501,1.109834398138925,62
18:13:09,-0.017139136791229248,0.013750135898590088,0.02990412712097168,-0.06263246387243271,-0.01531318947672844,-0.022963546216487885,0.5040765404701233,0.7695501446723938,-0.39204537868499756,0.909770619232076,-0.8781363867079383,1.1108843124337937,62
18:13:09,-0.018517136573791504,-0.0002726912498474121,0.02925056219100952,-0.0027243904769420624,-0.009243844076991081,-0.014678717590868473,0.502539873123169,0.7703431844711304,-0.3924601972103119,0.9077775802734452,-0.8793791724687459,1.1100013308343017,62
18:13:09,-0.008276641368865967,0.018486499786376953,0.025564730167388916,-0.08430314064025879,-0.0030003301799297333,-0.04696075618267059,0.5001122355461121,0.7741367220878601,-0.3880723714828491,0.9108801918958467,-0.8853502189874127,1.114484036540963,62
18:13:09,-0.037273019552230835,0.01191556453704834,0.03649526834487915,0.11440329998731613,0.07645481079816818,-0.055455174297094345,0.4966534972190857,0.7732923030853271,-0.39415016770362854,0.8999626686458433,-0.8840173703336877,1.0960819590062134,62
18:13:09,0.02789977192878723,0.0037474632263183594,0.036090731620788574,0.13584573566913605,-0.017995793372392654,0.05847618728876114,0.49839043617248535,0.7688415050506592,-0.40061184763908386,0.893735766620322,-0.8770274257929507,1.0861814227945499,62
18:13:10,-0.0029845833778381348,0.00610429048538208,0.07250863313674927,0.06329803168773651,-0.03898070007562637,0.07073257863521576,0.5010769367218018,0.7609772682189941,-0.41211119294166565,0.8825149335868907,-0.8648181151149238,1.074376553413239,62
18:13:10,-0.03829395771026611,-0.00041359663009643555,0.003945112228393555,-0.14344821870326996,0.017692165449261665,-0.021057255566120148,0.5044493675231934,0.7617879509925842,-0.40646013617515564,0.8925590363735911,-0.8660685528193045,1.0875455673688768,62
18:13:10,-0.018597900867462158,0.05125659704208374,-0.009736478328704834,0.04793665558099747,0.018894050270318985,-0.04243072122335434,0.5009282827377319,0.7679644823074341,-0.3991257846355438,0.8980266274588637,-0.8756570212127123,1.0937751184784492,62
18:13:10,0.005090206861495972,0.054527878761291504,-0.010061502456665039,0.1920192688703537,0.008883493021130562,-0.015265146270394325,0.4979161024093628,0.7671959400177002,-0.4043392539024353,0.8887430495648607,-0.8744579196489778,1.0810739106330987,64
18:13:10,-0.010327756404876709,0.009303569793701172,0.05396527051925659,0.14401312172412872,-0.021619021892547607,-0.000880880281329155,0.4972976744174957,0.7612586617469788,-0.41614943742752075,0.8740029205790091,-0.8652519324901822,1.0623847429857098,64
18:13:10,0.004188358783721924,0.01681339740753174,0.05752754211425781,0.03026658296585083,0.007412362843751907,0.16210004687309265,0.5010159611701965,0.7523455023765564,-0.4277372658252716,0.8641350957072186,-0.8516153052450586,1.0505541359397856,64
18:13:10,-0.007302403450012207,0.028166770935058594,0.0002497434616088867,-0.14643122255802155,0.04812357574701309,0.10874175280332565,0.511896550655365,0.7490038871765137,-0.42066049575805664,0.8829220842012032,-0.846557399162616,1.0723470445375838,64
18:13:10,-0.024388432502746582,-0.013941347599029541,-0.0013734102249145508,-0.20433074235916138,-0.022574031725525856,-0.051479075103998184,0.5137391090393066,0.7538195848464966,-0.40966856479644775,0.8976272817867249,-0.8538557941011974,1.0910991224037268,64
18:13:10,0.00013118982315063477,0.051737070083618164,-0.011760115623474121,0.3212089538574219,-0.035206470638513565,-0.06464414298534393,0.5064471960067749,0.7548530101776123,-0.4167831540107727,0.88221442066719,-0.8554299692745305,1.0768460902289134,64
18:13:10,-0.024124830961227417,-0.0026289820671081543,0.04207026958465576,0.19489175081253052,-0.03998764604330063,-0.052086010575294495,0.49864497780799866,0.7458804249763489,-0.44160565733909607,0.8459878530962749,-0.841855696691703,1.0342750601943433,64
18:13:11,-0.019750356674194336,-0.013996899127960205,0.03197050094604492,-0.019823215901851654,0.047107845544815063,-0.008004569448530674,0.4983140528202057,0.7445683479309082,-0.44418591260910034,0.842765530177,-0.8398879644789458,1.0283600361399219,64
18:13:11,0.0006296038627624512,0.046837806701660156,0.00893247127532959,-0.16525179147720337,0.07903355360031128,0.06427974253892899,0.5039501786231995,0.7489496469497681,-0.4302424490451813,0.8641349866974347,-0.8464755482875412,1.045791355953208,64
18:13:11,-0.015711486339569092,0.014892399311065674,0.006259500980377197,-0.054540179669857025,0.0005350168794393539,0.013469030149281025,0.5085113644599915,0.7499958872795105,-0.4229920208454132,0.8769494178513954,-0.8480558313130073,1.0578226235249846,64
18:13:11,-0.022788047790527344,-0.00643545389175415,0.021589696407318115,-0.05193561315536499,-0.021488793194293976,-0.0012816861271858215,0.509103000164032,0.7501903772354126,-0.4219343364238739,0.8787513255883219,-0.8483499045909438,1.0621294394939915,64
18:13:11,-0.011966705322265625,0.0005422234535217285,0.02486521005630493,-0.07349363714456558,-0.0213489793241024,-0.03389076143503189,0.5065670013427734,0.7539850473403931,-0.4182063341140747,0.8806574349179745,-0.8541076344616255,1.0673104549290955,64
18:13:11,-0.008259415626525879,0.037348806858062744,0.021005630493164062,0.152175173163414,-0.012996505945920944,-0.05769729241728783,0.5018224120140076,0.7588198184967041,-0.4151705801486969,0.8796140179071429,-0.8614991773546884,1.0667056178045224,64
18:13:11,-0.0169297456741333,0.030220389366149902,0.0013303160667419434,0.0034932922571897507,0.014091303572058678,-0.0157058984041214,0.500345766544342,0.758181631565094,-0.4181087017059326,0.8746985521216232,-0.8605198659936615,1.0601525691073455,64
18:13:11,-0.008917272090911865,0.014270603656768799,-0.002435743808746338,0.0010138899087905884,-0.01285349391400814,-0.018380245193839073,0.4983299672603607,0.7570109367370605,-0.42261284589767456,0.8674306336364759,-0.858726337744414,1.0515652655233634,64
18:13:11,-0.005807369947433472,0.0115281343460083,0.01740807294845581,-0.02876771055161953,0.01638801582157612,0.011116927489638329,0.498027503490448,0.7567623257637024,-0.4234139621257782,0.8661966735822026,-0.8583459146009943,1.0491933319105473,64
18:13:11,-0.003442525863647461,0.013573646545410156,0.026247262954711914,0.08097503334283829,0.00032808817923069,0.04197630658745766,0.5000414848327637,0.7532362341880798,-0.42730966210365295,0.8636675930950597,-0.8529684829499231,1.0440081565101036,64
18:13:12,-0.013369619846343994,-0.008948683738708496,0.026838064193725586,-0.12288355827331543,-0.05466592311859131,0.07251796871423721,0.5026447176933289,0.7507655620574951,-0.4286017119884491,0.864740840462553,-0.8492202795644953,1.0496283775426987,64
18:13:12,-0.018046975135803223,0.050189971923828125,0.0385746955871582,0.14059069752693176,-0.07948099076747894,0.14259931445121765,0.5086802840232849,0.742561399936676,-0.43571439385414124,0.8625070538960076,-0.8368865095802117,1.0556392489099202,64
18:13:12,-0.03698885440826416,0.01734447479248047,0.009424984455108643,0.8004719614982605,0.13453355431556702,0.11171410232782364,0.5212435126304626,0.7197278738021851,-0.45858144760131836,0.8492634817866719,-0.8034103124230302,1.025694986290863,64
18:13:12,-0.0059661865234375,0.03799164295196533,0.09257280826568604,1.0221952199935913,-0.11338356882333755,0.23426878452301025,0.5367445945739746,0.6677101254463196,-0.5158182978630066,0.8052767974113794,-0.7311284613360843,0.951870713856676,64
18:13:12,0.018823444843292236,0.032280027866363525,0.09430038928985596,1.3787033557891846,-0.6440460681915283,0.21791884303092957,0.5275341868400574,0.5914685130119324,-0.6098135709762573,0.7131807510498733,-0.6328788620554644,0.8723724069360901,64
18:13:12,0.023724019527435303,0.014754295349121094,0.06389296054840088,1.4786155223846436,-0.7849025726318359,0.231822669506073,0.48866868019104004,0.4737892746925354,-0.7326163053512573,0.5882461822101094,-0.49358870857762066,0.7783199955768094,64
18:13:12,-0.01758277416229248,-0.026032745838165283,0.055056095123291016,1.5136427879333496,-0.8387657403945923,0.16944211721420288,0.4323664903640747,0.3350602984428406,-0.8371343016624451,0.4767477037164251,-0.34166923982952424,0.7078742148592264,64
18:13:12,-0.012355327606201172,-0.03590403497219086,0.002704322338104248,0.7091974020004272,-0.38941726088523865,-0.020147519186139107,0.3775950074195862,0.22719743847846985,-0.8976655006408691,0.3981728195282862,-0.22919889492396872,0.6589409796040577,64
18:13:12,0.008368521928787231,-0.00574040412902832,-0.0398673415184021,0.4256240427494049,-0.19244003295898438,0.14396817982196808,0.35200414061546326,0.17423857748508453,-0.9196379780769348,0.3655598716310571,-0.1751324665073725,0.6436917030423297,64
18:13:12,-0.039095789194107056,-0.07192569971084595,-0.01402592658996582,0.039326123893260956,0.11803634464740753,0.06625821441411972,0.3474055230617523,0.1403423547744751,-0.9271534085273743,0.3585087082717029,-0.1408071879030876,0.64374839179309,64
18:13:13,-0.05546313524246216,-0.059394821524620056,0.010368645191192627,-0.641523003578186,0.5453003644943237,-0.20874327421188354,0.37957993149757385,0.17372415959835052,-0.9087018370628357,0.39568548173815343,-0.17461007974312678,0.6500951188352699,64
18:13:13,-0.0029478073120117188,0.030083566904067993,0.02438676357269287,-0.2647205889225006,0.2513648569583893,-0.3148854076862335,0.41147544980049133,0.239517480134964,-0.879385769367218,0.43764956635854985,-0.24186884144265647,0.6492206873806232,64
18:13:13,0.022933214902877808,0.0369856059551239,0.02813541889190674,-0.11144714057445526,0.1294221580028534,-0.09517675638198853,0.4227643311023712,0.26590925455093384,-0.8663501739501953,0.45398804750289773,-0.2691470084938015,0.6393815087707501,64
18:13:13,0.003316640853881836,-0.001750171184539795,0.010284066200256348,-0.032949402928352356,0.054512497037649155,-0.03087473288178444,0.4292580485343933,0.27429500222206116,-0.860522985458374,0.46271430711230965,-0.2778565071718136,0.6376405444914948,64
18:13:13,0.004137516021728516,-0.0011221766471862793,-0.00700753927230835,0.014700939878821373,0.06933139264583588,-0.1059684231877327,0.43098536133766174,0.2800907790660858,-0.8577883243560791,0.4655960383289267,-0.2838886870546336,0.6315095713848053,64
18:13:13,-0.01935902237892151,0.022267043590545654,0.028778016567230225,-0.05272950232028961,0.15008029341697693,0.00038199033588171005,0.4383990168571472,0.2839689552783966,-0.8527414202690125,0.47486817923942104,-0.28793095681823744,0.6246723687954961,64
18:13:13,-0.016011863946914673,-0.007270365953445435,0.04459458589553833,-0.12706099450588226,0.11688799411058426,0.052428681403398514,0.4520956575870514,0.2899314761161804,-0.8435338139533997,0.49199573768048716,-0.2941552526670892,0.6336501868870834,64
18:13:13,0.010100364685058594,-0.0001423954963684082,0.020032525062561035,-0.08597986400127411,0.009242219850420952,-0.011753235012292862,0.4585149884223938,0.30152571201324463,-0.8359702229499817,0.5016773312272091,-0.30629244207446404,0.6434860594999607,64
18:13:13,0.00039187073707580566,0.0018668174743652344,-0.0025576353073120117,-0.018760614097118378,0.01407692302018404,-0.0010899384506046772,0.458061158657074,0.3049638271331787,-0.8349713087081909,0.5017639357840802,-0.3099004322904281,0.6452383832112757,64
18:13:13,-0.0057582855224609375,0.0054201483726501465,0.012453675270080566,-0.012832153588533401,0.01777765154838562,0.014636826701462269,0.461128830909729,0.30722397565841675,-0.8324503898620605,0.5058642983146426,-0.31227453655382176,0.6472632267216306,64
18:13:14,-0.004512786865234375,0.011624932289123535,0.019066333770751953,-0.014007136225700378,-0.009272607043385506,0.0035229232162237167,0.4617753028869629,0.3083432614803314,-0.8316778540611267,0.5068522888207049,-0.3134509395312954,0.6486817605554721,64
18:13:14,0.007242769002914429,0.01430213451385498,0.01360088586807251,0.014055655337870121,-0.025226272642612457,0.008092374540865421,0.4608688950538635,0.30912986397743225,-0.8318886160850525,0.5059114283478285,-0.31427794632227374,0.6502548156057076,64
18:13:14,-0.002167731523513794,0.006400197744369507,0.009868144989013672,0.0012764763087034225,-0.03753833472728729,0.04312492907047272,0.4590335786342621,0.30822744965553284,-0.8332370519638062,0.5035369514317068,-0.31332918885214733,0.6525553068249519,64
18:13:14,-0.006735563278198242,-0.0018329024314880371,0.021300792694091797,-0.07185712456703186,-0.006767371669411659,0.02555285580456257,0.45909997820854187,0.30857163667678833,-0.833073079586029,0.503681271181767,-0.3136910181451895,0.6569930078841489,64
18:13:14,-0.006343483924865723,-0.006663024425506592,0.034907639026641846,-0.1757020205259323,-0.0042717233300209045,0.006659594364464283,0.45907387137413025,0.315293550491333,-0.8305667638778687,0.5049318680309054,-0.32076595280534453,0.6630245150077717,64
18:13:14,-0.013366997241973877,0.006538301706314087,0.008755087852478027,-0.15073995292186737,-0.017462892457842827,-0.02269989252090454,0.4578273594379425,0.3364392817020416,-0.8229233026504517,0.5076997979489918,-0.34313317677973254,0.676444683748216,64
18:13:14,-0.0023318231105804443,0.008094221353530884,0.011301100254058838,-0.1459723562002182,-0.0017952490597963333,-0.01643560454249382,0.4565272331237793,0.3500654101371765,-0.8179469108581543,0.5090697069625651,-0.357640926487545,0.6816941655741827,64
18:13:14,-0.0042435526847839355,0.0028354525566101074,0.017090201377868652,-0.2266238033771515,-0.004166262224316597,-0.02944008633494377,0.45538756251335144,0.3660508990287781,-0.8115595579147339,0.5113454429932343,-0.37476182500020677,0.6889829590473031,64
18:13:14,5.352497100830078e-05,0.0013478994369506836,0.02601766586303711,-0.20458108186721802,-0.020101550966501236,-0.032107774168252945,0.4533947706222534,0.38413962721824646,-0.8042823076248169,0.5133202221454283,-0.3942757700284847,0.6965659871831479,64
18:13:14,-0.0021363794803619385,0.0027731359004974365,0.019930660724639893,-0.18603642284870148,-0.05916266888380051,-0.0483408086001873,0.449664443731308,0.4008261561393738,-0.7982106804847717,0.513027766343451,-0.41241844390989413,0.7034006016069123,64
18:13:15,0.0033625662326812744,-0.0011661350727081299,0.02623385190963745,-0.1785782426595688,-0.08020271360874176,-0.06544389575719833,0.4401376247406006,0.4159957468509674,-0.7957552671432495,0.5052253108813606,-0.4290375343468742,0.704956676840551,64
18:13:15,0.0031782984733581543,0.022580742835998535,0.009303569793701172,-0.21695652604103088,-0.037256304174661636,-0.026172921061515808,0.43394410610198975,0.4358733594417572,-0.7884839177131653,0.5031137962736686,-0.4510084373452351,0.712886871268506,64
18:13:15,-0.009913831949234009,0.0014235377311706543,0.01945441961288452,-0.5141610503196716,0.03257257863879204,0.042326245456933975,0.4350428879261017,0.4618213176727295,-0.7729545831680298,0.5126409697784365,-0.48004750401109586,0.7331893895622,64
18:13:15,-0.021317005157470703,-0.0019146203994750977,0.023584365844726562,-0.683518648147583,0.0610891729593277,-0.01120142824947834,0.43970155715942383,0.507638692855835,-0.7409220337867737,0.5355907895342669,-0.5324418968051123,0.7701106610173188,64
18:13:15,-0.014285922050476074,0.03225839138031006,0.018886923789978027,-0.08293534070253372,-0.03727148473262787,-0.06303666532039642,0.4388198256492615,0.5385741591453552,-0.7192878723144531,0.5477949743922698,-0.5687439701647223,0.7897551329026568,64
18:13:15,-0.0021909773349761963,0.031141936779022217,0.018921494483947754,-0.04800558090209961,-0.03620941936969757,-0.023208823055028915,0.4331027567386627,0.544588029384613,-0.7182241082191467,0.5426363545566402,-0.5758978648397537,0.7880425659192566,64
18:13:15,-0.009503960609436035,0.012836933135986328,0.024895191192626953,-0.01619439199566841,-0.015357930213212967,-0.01589338481426239,0.43007025122642517,0.5471763014793396,-0.7180792093276978,0.5396232248401789,-0.5789869876524241,0.7882976271503822,64
18:13:15,-0.005788534879684448,0.01994025707244873,0.03322124481201172,-0.07278469949960709,0.010361814871430397,0.0063783638179302216,0.4287198781967163,0.5508301854133606,-0.7160903811454773,0.5394595301549362,-0.5833585736537208,0.7893271762560565,64
18:13:15,-0.01008373498916626,0.019459962844848633,0.019579172134399414,-0.031154701486229897,-0.00809469074010849,0.0024145152419805527,0.42816248536109924,0.5562232136726379,-0.7122448086738586,0.5412610904277828,-0.5898341426678817,0.7934612334178718,64
18:13:15,-0.010388731956481934,0.012561380863189697,0.024666428565979004,-0.031990133225917816,0.036163050681352615,-0.014133036136627197,0.42990168929100037,0.5577200651168823,-0.7100231647491455,0.544435935417103,-0.5916364265402034,0.7943794911270732,64
18:13:16,-0.007076263427734375,0.01563161611557007,0.027743816375732422,0.003617396578192711,0.03119572252035141,-0.022781385108828545,0.4304802715778351,0.5590444207191467,-0.7086297273635864,0.5459032859586715,-0.5932328662711637,0.7927186210105557,64
18:13:16,-0.0020845532417297363,0.016022801399230957,0.02887547016143799,0.011911011300981045,0.014064139686524868,-0.004847658798098564,0.43136316537857056,0.5601180791854858,-0.7072436809539795,0.5476828425288952,-0.5945283447569549,0.7911460336433667,64
18:13:16,-0.003913581371307373,0.021148681640625,0.021970272064208984,0.008241708390414715,0.010335449129343033,-0.007270069792866707,0.43175777792930603,0.5599206686019897,-0.7071592211723328,0.5481425222331292,-0.5942900503404765,0.7897847661121625,64
18:13:16,-0.008196055889129639,0.013515472412109375,0.02605372667312622,0.020372141152620316,0.01771693117916584,0.003625720739364624,0.433064728975296,0.5592073202133179,-0.7069244384765625,0.5496356288353393,-0.5934293314957558,0.7894800562818393,64
18:13:16,-0.004913955926895142,0.023627161979675293,0.017945587635040283,0.015206407755613327,0.0017049424350261688,0.01803421974182129,0.4342535436153412,0.5594106316566467,-0.7060337066650391,0.551419963216132,-0.5936746237461075,0.7905606813134698,64
18:13:16,-0.007732957601547241,0.00933009386062622,0.01995539665222168,0.03130042180418968,0.02871844917535782,0.012160886079072952,0.43611109256744385,0.5565568208694458,-0.7071433067321777,0.5526246903206495,-0.5902356285485657,0.7907928321856464,64
18:13:16,-0.01022636890411377,0.013789176940917969,0.027254462242126465,0.038544487208127975,0.022518079727888107,0.016931407153606415,0.4395197331905365,0.5545237064361572,-0.7066299319267273,0.5564349353789875,-0.5877904855000003,0.7913885074104944,64
18:13:16,-0.010192394256591797,0.013852715492248535,0.027697324752807617,0.018008051440119743,0.0200639758259058,-0.004774687811732292,0.4409504532814026,0.5534834265708923,-0.706554114818573,0.5579417030998262,-0.5865409604692838,0.7905149339615819,64
18:13:16,-0.00637325644493103,0.007860779762268066,0.028423666954040527,0.0070803044363856316,0.007895727641880512,-0.012130605056881905,0.44108331203460693,0.5531125068664551,-0.7067617177963257,0.5579450881340903,-0.5860956327342871,0.7888272694169486,64
18:13:16,0.0002186298370361328,0.01399296522140503,0.02524256706237793,0.009166624397039413,-0.0006708633154630661,0.0131747517734766,0.4413730204105377,0.5533583760261536,-0.7063882946968079,0.5584774836451619,-0.5863908011600176,0.7882804187800422,64
18:13:17,-0.011949896812438965,0.002786397933959961,0.019130229949951172,-0.01041320152580738,0.00051104836165905,0.010866056196391582,0.44133442640304565,0.5528155565261841,-0.7068372964859009,0.5581527026684802,-0.5857392892326764,0.7894947067410767,64
18:13:17,-0.008683890104293823,0.017669200897216797,0.027830958366394043,0.024076595902442932,0.004131881520152092,-0.003745376132428646,0.4428749084472656,0.5530999898910522,-0.7056503295898438,0.560475718114668,-0.5860805915746057,0.7899071948003386,64
18:13:17,-0.008852392435073853,0.006428778171539307,0.02244579792022705,0.02298630028963089,0.021412067115306854,-0.007242106832563877,0.44311967492103577,0.5516145825386047,-0.7066586017608643,0.5600816748496236,-0.5842987278334841,0.7880949190023558,64
18:13:17,-0.005897104740142822,0.019100427627563477,0.02030777931213379,0.025225484743714333,0.011641995050013065,0.007157604210078716,0.44408589601516724,0.5512109994888306,-0.7063668966293335,0.5612485088987739,-0.5838149726282169,0.7868418597883965,64
18:13:17,-0.004896044731140137,0.01113581657409668,0.020051658153533936,0.020502367988228798,0.012894213199615479,-0.00491423811763525,0.4445800483226776,0.5498676896095276,-0.7071026563644409,0.561280526538404,-0.5822058283578236,0.7854704939906068,64
18:13:17,-0.0044615864753723145,0.007898151874542236,0.0239487886428833,0.023992175236344337,0.015315558761358261,0.008409024216234684,0.44608333706855774,0.5486801862716675,-0.7070783376693726,0.5628182516040081,-0.5807847567947141,0.784867129969607,64
18:13:17,-0.003650367259979248,0.012853443622589111,0.02012777328491211,0.027652423828840256,0.023883746936917305,0.010898546315729618,0.44727084040641785,0.547661542892456,-0.7071178555488586,0.5639934100318363,-0.5795668307228659,0.784063706609017,64
18:13:17,-0.006605088710784912,0.008951842784881592,0.02028977870941162,0.0057519180700182915,0.031092658638954163,-0.002195416484028101,0.4497218430042267,0.5466650128364563,-0.7063338756561279,0.566967628352864,-0.5783762461689513,0.7832435084777125,64
18:13:17,-0.0037941336631774902,0.006483316421508789,0.02212536334991455,-0.0014167781919240952,0.031238066032528877,-0.011886660009622574,0.45132070779800415,0.5461886525154114,-0.7056822776794434,0.5689954938007542,-0.5778075003591827,0.7817807624169977,64
18:13:17,-0.0007599890232086182,0.01659238338470459,0.017280638217926025,0.01563624106347561,0.03226498141884804,-0.009467178024351597,0.4527265429496765,0.5463941693305969,-0.7046219110488892,0.5710917204010294,-0.5780528532344115,0.7800189077227323,64
18:13:18,-0.005554020404815674,0.01381462812423706,0.022812485694885254,0.001859709620475769,0.022376663982868195,0.008667883463203907,0.45452961325645447,0.5452197194099426,-0.7043708562850952,0.5730631691911209,-0.576651208122421,0.7790016442782814,64
18:13:18,-0.011310875415802002,0.006825089454650879,0.023314714431762695,0.030945688486099243,0.0003288872539997101,0.02767806127667427,0.45638012886047363,0.5429014563560486,-0.7049646377563477,0.5745312901827339,-0.5738882461683121,0.7796883096687718,64
18:13:18,-0.007924437522888184,0.014622151851654053,0.023957371711730957,0.011838041245937347,0.006648303009569645,-0.002479576040059328,0.45738816261291504,0.5419709086418152,-0.7050274610519409,0.5754976013105092,-0.5727805421438984,0.7801025368967284,64
18:13:18,-0.006826996803283691,0.0062888264656066895,0.015284359455108643,0.014087880030274391,-0.011750677600502968,0.008224201388657093,0.45737403631210327,0.5405385494232178,-0.7061353325843811,0.5747667939462836,-0.5710770730512449,0.7800573008836524,64
18:13:18,-0.007478117942810059,0.009630799293518066,0.02127981185913086,0.018966523930430412,-0.004466665908694267,0.00950544886291027,0.4574911892414093,0.5396227836608887,-0.7067595720291138,0.5744805068418015,-0.569989010833768,0.7799846345159674,64
18:13:18,-0.007121264934539795,0.0053618550300598145,0.02589738368988037,-0.004047716036438942,-0.005640588700771332,-0.008566496893763542,0.45710381865501404,0.5389785170555115,-0.7075014710426331,0.5736158631142656,-0.5692239194654352,0.7791488260571928,64
18:13:18,-0.0031459927558898926,0.00961369276046753,0.016368865966796875,0.0020250920206308365,0.0005294233560562134,-0.002499016933143139,0.45663800835609436,0.5391820669174194,-0.7076470851898193,0.5730574414913454,-0.569465627234726,0.7785934564539487,64
18:13:18,-0.001839756965637207,0.00996321439743042,0.016594290733337402,0.014097467064857483,-0.0018943212926387787,0.010721713304519653,0.4573003351688385,0.5383445620536804,-0.707857072353363,0.5735827296930158,-0.5684715130168283,0.778671588607483,64
18:13:18,-0.005606591701507568,0.009059250354766846,0.0206451416015625,0.02274182066321373,0.010182850062847137,0.00360121950507164,0.458091676235199,0.5367766618728638,-0.7085357308387756,0.5739340674420823,-0.5666121108808707,0.7780908701778292,64
18:13:18,-0.026847541332244873,0.013622760772705078,0.003432035446166992,-0.14394809305667877,0.060543492436409,0.02291765809059143,0.460274338722229,0.5386064648628235,-0.7057269811630249,0.5779194383824495,-0.5687823103477552,0.7795349697241303,64
18:13:19,-0.02435237169265747,0.002306699752807617,0.025423824787139893,-0.01733688823878765,-0.0374472513794899,-0.026978526264429092,0.459579735994339,0.5410266518592834,-0.7043270468711853,0.5781369972654002,-0.5716573626534519,0.779894072353548,64
18:13:19,0.004059970378875732,0.018156766891479492,0.025784015655517578,-0.05173427611589432,-0.006880821660161018,-0.01562440674751997,0.4561763107776642,0.5452871322631836,-0.7032532691955566,0.5754367118739028,-0.5767316002862763,0.7794967718718058,64
18:13:19,-0.008525609970092773,0.0217057466506958,0.01592642068862915,0.0060171689838171005,-0.015577642247080803,0.05665405094623566,0.45653942227363586,0.5461629033088684,-0.7023374438285828,0.5763953085205104,-0.577776730161987,0.7843066632472918,64
18:13:19,-0.013203322887420654,0.015894949436187744,0.023724913597106934,-0.07137775421142578,0.04333920404314995,0.0865594893693924,0.4626205861568451,0.5460531711578369,-0.6984326243400574,0.5850218744520996,-0.5776457095833087,0.7945516415267434,64
18:13:19,-0.007438361644744873,0.010783135890960693,0.02799886465072632,-0.030481185764074326,-0.030157648026943207,0.03848676756024361,0.4671246409416199,0.5462669730186462,-0.6952604055404663,0.5915962951487597,-0.5779009607087083,0.8048719251595365,64
18:13:19,-0.015963315963745117,0.011816442012786865,0.03554713726043701,-0.028002314269542694,-0.09751085937023163,0.024503041058778763,0.4647851884365082,0.5471406579017639,-0.696140706539154,0.5886898526066305,-0.5789443700759496,0.810343175932276,64
18:13:19,0.00660175085067749,0.000513613224029541,0.005815982818603516,-0.022770272567868233,-0.050989165902137756,0.008011681959033012,0.45821166038513184,0.5473199486732483,-0.7003448605537415,0.5793681732657134,-0.579158619544002,0.8113509352433277,64
18:13:19,0.014766097068786621,-0.012653648853302002,0.011950016021728516,0.02034364454448223,-0.08410637080669403,-0.01667795330286026,0.4534956216812134,0.5477457046508789,-0.7030763626098633,0.5728636733088462,-0.5796674068997059,0.811571346378688,64
18:13:19,-0.002134561538696289,0.008775115013122559,0.029704034328460693,0.005902920849621296,-0.03740890324115753,-0.023462621495127678,0.4495985805988312,0.5472975969314575,-0.7059224843978882,0.5671074217027353,-0.579131915720652,0.8090070361335867,64
18:13:19,-0.009493589401245117,0.005755484104156494,0.017425596714019775,0.09308788925409317,-0.037434469908475876,-0.03955717012286186,0.4452996253967285,0.5449762344360352,-0.7104288339614868,0.5598955229289543,-0.5763607624298712,0.8036066545898042,64
18:13:20,-0.005064487457275391,0.007380247116088867,0.022649765014648438,0.029463641345500946,-0.003093807026743889,-0.03774808347225189,0.44088637828826904,0.5404072999954224,-0.7166443467140198,0.5515279058115407,-0.5709211142199454,0.7933392487456832,64
18:13:20,-0.002461642026901245,0.008345425128936768,0.010630130767822266,0.029262039810419083,-0.009187120944261551,-0.02330229990184307,0.43936681747436523,0.5414560437202454,-0.7167860269546509,0.5499002038634019,-0.5721680182417797,0.7903687446813819,64
18:13:20,-0.0058106184005737305,0.012458324432373047,0.02126002311706543,0.024214282631874084,-0.0020301397889852524,-0.01589019037783146,0.4377261698246002,0.5402422547340393,-0.7187031507492065,0.547047369908643,-0.570724938276991,0.7858253129414537,64
18:13:20,-0.009415417909622192,0.008135616779327393,0.013840556144714355,0.011999694630503654,0.009119982831180096,-0.013349267654120922,0.4374704658985138,0.539193868637085,-0.7196455001831055,0.5462060303579972,-0.5694796359702533,0.7837503117356763,64
18:13:20,-0.004762768745422363,0.009755969047546387,0.02123236656188965,0.01806025020778179,0.01155650895088911,-0.008508972823619843,0.4376700222492218,0.5390231013298035,-0.7196520566940308,0.5464044045727285,-0.5692768352804513,0.7818000606255716,64
18:13:20,-0.004221141338348389,0.008092045783996582,0.015995264053344727,0.0031366944313049316,0.013868398033082485,0.004928538575768471,0.438638836145401,0.5387489199638367,-0.7192673683166504,0.5476242424712106,-0.568951357636384,0.7810270816761423,64
18:13:20,-0.008312463760375977,0.008201956748962402,0.021796822547912598,0.0030943509191274643,0.00785498134791851,0.009671895764768124,0.44022780656814575,0.5381203293800354,-0.718766987323761,0.5495428477616324,-0.5682054587248876,0.7818015530065776,64
18:13:20,-0.008457958698272705,0.0033415555953979492,0.0204237699508667,-0.002779252827167511,0.005386496894061565,-0.009674104861915112,0.44087690114974976,0.538098156452179,-0.7183857560157776,0.5504357883150613,-0.5681790980278036,0.7821612514814245,64
18:13:20,-0.007418930530548096,0.009222149848937988,0.01661616563796997,0.000949440523982048,0.007783074863255024,-0.014487769454717636,0.44035661220550537,0.5390837788581848,-0.7179656624794006,0.5501701655676591,-0.5693488990576624,0.780919754787755,64
18:13:20,-0.007566243410110474,0.0012514591217041016,0.021500825881958008,-0.0016311630606651306,0.022578001022338867,0.00015269219875335693,0.4409617483615875,0.5391963124275208,-0.7175096273422241,0.5510657733441459,-0.5694825308368836,0.7805374451788921,64
18:13:21,-0.010986030101776123,0.004349470138549805,0.01862049102783203,0.014487087726593018,0.0018335729837417603,-0.015871282666921616,0.4414365887641907,0.5400198101997375,-0.7165977954864502,0.5521136846159772,-0.5704606278859764,0.7799212572288993,64
18:13:21,-0.005172431468963623,0.011306047439575195,0.015320062637329102,-0.001167772337794304,-0.00797404907643795,-0.03766952082514763,0.4390867054462433,0.5418978929519653,-0.7166237831115723,0.5497169409420372,-0.5726936656704581,0.7768408448510383,64
18:13:21,-0.0031373798847198486,0.006527543067932129,0.017873048782348633,0.001996062695980072,-0.004373189061880112,-0.0013365470804274082,0.4380127489566803,0.543242871761322,-0.7162625193595886,0.5488510272678202,-0.5742948348798483,0.7758865597739012,64
18:13:21,-0.01053956151008606,0.009537577629089355,0.018248438835144043,-0.011580465361475945,-0.004378782585263252,0.005981553345918655,0.43754133582115173,0.5436506271362305,-0.7162412405014038,0.5483850412403503,-0.5747805959125506,0.7761175753554492,64
18:13:21,-0.007319033145904541,0.0047035813331604,0.017050862312316895,-0.016356846317648888,-0.008148221299052238,-0.006099877413362265,0.4367928206920624,0.5445631742477417,-0.7160049080848694,0.547770363286676,-0.575868192729319,0.7765013140366861,64
18:13:21,-0.006847262382507324,0.011419177055358887,0.01767754554748535,0.01055439654737711,-0.009337320923805237,-0.002611135598272085,0.4358174800872803,0.5452022552490234,-0.7161129117012024,0.5467100604304129,-0.5766303397930291,0.7759935374789749,64
18:13:21,-0.006810188293457031,0.007509410381317139,0.019026637077331543,0.005604912526905537,0.0030210763216018677,0.005963443778455257,0.43578040599823,0.5447021722793579,-0.7165158987045288,0.5464224686248451,-0.5760339427582208,0.7755830720974967,64
18:13:21,-0.005614936351776123,0.009371697902679443,0.014315962791442871,0.04584820568561554,0.006760154850780964,0.02152935415506363,0.43707209825515747,0.5428550243377686,-0.7171306610107422,0.547356163566585,-0.5738329280601853,0.7759579985561728,64
18:13:21,-0.0069821178913116455,-0.0018203258514404297,0.024507880210876465,0.042102470993995667,0.011419888585805893,0.021669169887900352,0.4384085237979889,0.5378574132919312,-0.7200745940208435,0.5468924164092175,-0.5678935060872805,0.7734928806869873,64
18:13:21,-0.00894474983215332,0.015198945999145508,0.024560213088989258,0.018916456028819084,-0.016777928918600082,0.009404780343174934,0.43986764550209045,0.5360207557678223,-0.7205541729927063,0.548073338913964,-0.5657164130934894,0.7736557036992732,64
18:13:22,-0.007926702499389648,0.0038967132568359375,0.0274507999420166,0.009080602787435055,-0.03386396914720535,0.010468713939189911,0.43837642669677734,0.5345816612243652,-0.7225292921066284,0.5453495052540263,-0.5640126390932974,0.7737264416896702,64
18:13:22,-0.004754006862640381,0.0018412470817565918,0.017109036445617676,-0.011021202430129051,-0.02663109079003334,0.04574254900217056,0.4382249712944031,0.5342262983322144,-0.722883939743042,0.5449787013353656,-0.5635921986892255,0.7767298909943121,64
18:13:22,-0.008213281631469727,0.004865765571594238,0.025619149208068848,-0.008868036791682243,-0.011634033173322678,-0.012275747954845428,0.43770161271095276,0.5336278080940247,-0.7236426472663879,0.5439844866795482,-0.5628844289956272,0.7797722075864421,64
18:13:22,-0.0020652711391448975,0.00909566879272461,0.025002121925354004,0.009816435165703297,-0.014225553721189499,-0.03894703835248947,0.43498703837394714,0.5347996354103088,-0.7244139909744263,0.5407631521694765,-0.564270609628384,0.7767310074436802,64
18:13:22,-0.0018576085567474365,0.010063648223876953,0.01613008975982666,0.07102146744728088,-0.006922367960214615,-0.03549691289663315,0.43192586302757263,0.5333736538887024,-0.7272912859916687,0.5359094717007938,-0.562583917482595,0.7701305170088161,64
18:13:22,-0.0056168437004089355,0.0035909414291381836,0.018826603889465332,0.0007936451584100723,0.023624088615179062,-0.002208732534199953,0.43176349997520447,0.5310267806053162,-0.7291027903556824,0.5346530956532931,-0.5598118617144691,0.7661024281608,64
18:13:22,-0.006780117750167847,0.0015148520469665527,0.0202181339263916,0.002071429044008255,0.021297020837664604,-0.003486516885459423,0.43339961767196655,0.5311343669891357,-0.7280529737472534,0.53694599235932,-0.5599387953144935,0.7660467823840927,64
18:13:22,-0.0051670074462890625,0.0055997371673583984,0.01630842685699463,-0.0126422680914402,0.018970748409628868,0.0001431051641702652,0.4347466826438904,0.5314592719078064,-0.7270119786262512,0.5389410700260373,-0.5603223632532465,0.7659237838359007,64
18:13:22,-0.003545910120010376,0.009371042251586914,0.016149401664733887,-0.015138447284698486,0.02258199453353882,0.002629166468977928,0.43655863404273987,0.5316092371940613,-0.72581547498703,0.5415021103000074,-0.5604993865552851,0.7662303427866444,64
18:13:22,-0.010038822889328003,0.0004107952117919922,0.014001250267028809,-0.0028452984988689423,0.013949891552329063,-0.0035381820052862167,0.43815329670906067,0.5317498445510864,-0.724750816822052,0.5437636115493577,-0.5606654055023143,0.7666815658972521,64
18:13:23,-0.010119527578353882,0.005733013153076172,0.019806623458862305,-0.00035177916288375854,0.01646151952445507,-0.0047539155930280685,0.4386613368988037,0.5327752828598022,-0.7236896753311157,0.5449260918399823,-0.5618766969574416,0.7662589207849965,64
18:13:23,-0.008711248636245728,0.0019369125366210938,0.020679473876953125,-0.00885099358856678,0.012745609506964684,-0.011997712776064873,0.4392213225364685,0.53313809633255,-0.7230826020240784,0.5458640877074769,-0.562305447385353,0.7657190811351844,64
18:13:23,-0.00534781813621521,0.0034942030906677246,0.017572224140167236,-0.00047162361443042755,0.005307400599122047,-0.001192204188555479,0.43930625915527344,0.5340525507926941,-0.7223557829856873,0.5463962780216542,-0.5633866881099273,0.7651903258181465,64
18:13:23,-0.002716064453125,0.005154013633728027,0.012439548969268799,-0.0030064191669225693,0.010311480611562729,0.00851075816899538,0.4396500289440155,0.5348494648933411,-0.7215566039085388,0.5472353181402078,-0.5643295743608601,0.765434767960696,64
18:13:23,-0.007803380489349365,0.002660989761352539,0.021254420280456543,-0.008950062096118927,0.0016522128134965897,-0.008455176837742329,0.4402512311935425,0.5348552465438843,-0.7211856842041016,0.5480713885543247,-0.5643364270638997,0.7654888510606548,64
18:13:23,-0.007143735885620117,0.006260275840759277,0.0183258056640625,0.0020714309066534042,0.005434433929622173,-0.004871893674135208,0.44009509682655334,0.535680890083313,-0.7206680178642273,0.548232958656015,-0.5653138950775738,0.7649778691876598,64
18:13:23,-0.008249402046203613,0.005035102367401123,0.016581952571868896,-0.008977491408586502,0.00911199301481247,-0.0023695873096585274,0.44022417068481445,0.5359295606613159,-0.7204042673110962,0.5485262690554301,-0.5656083857400097,0.7645025336896994,64
18:13:23,-0.007619142532348633,0.0034667253494262695,0.017769336700439453,0.004511949606239796,0.010272331535816193,-0.004814901389181614,0.44057050347328186,0.5360178351402283,-0.7201268076896667,0.54904768030828,-0.5657129351119424,0.7642093417582786,64
18:13:23,-0.0066124796867370605,0.011579155921936035,0.0140724778175354,0.005554843693971634,0.006572402082383633,0.007248152047395706,0.4410436451435089,0.5367399454116821,-0.719298779964447,0.5500381976706645,-0.5665685686930672,0.7640417571161636,64
18:13:23,-0.006457269191741943,0.005957961082458496,0.016982972621917725,0.004516478627920151,0.007707973942160606,-0.008431741036474705,0.44137686491012573,0.536471426486969,-0.7192947864532471,0.5503772878085055,-0.5662503501399704,0.7636755240811057,64
18:13:24,-0.010334014892578125,0.0009843707084655762,0.020514249801635742,0.0007401164621114731,0.011543725617229939,0.0036659343168139458,0.4417899250984192,0.5365318059921265,-0.7189960479736328,0.550979630059648,-0.5663218996004771,0.7634403581586534,64
18:13:24,-0.005813509225845337,0.00715261697769165,0.015604138374328613,0.008239311166107655,0.007943662814795971,-0.006102806888520718,0.44170984625816345,0.5367570519447327,-0.7188770771026611,0.5509725685285257,-0.5665888265143235,0.7627056340027331,64
18:13:24,-0.0014408230781555176,0.008884012699127197,0.01665651798248291,-0.0004069078713655472,0.0078813461586833,-0.0024169916287064552,0.44223520159721375,0.5369787812232971,-0.7183883786201477,0.551806485923568,-0.5668516526806768,0.7625099960602383,64
18:13:24,-0.006375610828399658,0.004116237163543701,0.01733076572418213,0.0031968820840120316,0.0028548957780003548,-0.001231352798640728,0.442760169506073,0.5368484854698181,-0.7181623578071594,0.5524767806127742,-0.5666972020158525,0.7622656898998883,64
18:13:24,-0.007538139820098877,0.0030722618103027344,0.018985748291015625,0.013129673898220062,0.004265304654836655,-0.006158999167382717,0.44293081760406494,0.536412239074707,-0.7183830738067627,0.5525116333481435,-0.5661802184537928,0.7615751062654974,64
18:13:24,-0.006161510944366455,0.0007611513137817383,0.019034624099731445,0.004498102702200413,0.010328259319067001,-0.002413263078778982,0.4430340528488159,0.5362817049026489,-0.7184168100357056,0.552594781785126,-0.5660255280678751,0.7607229133062636,64
18:13:24,-0.008545637130737305,0.0037729740142822266,0.018335938453674316,0.0007249359041452408,0.006585185416042805,0.0024267658591270447,0.44344964623451233,0.5361994504928589,-0.7182217836380005,0.5531351313811025,-0.5659281001163564,0.7603512110547512,64
18:13:24,-0.004970848560333252,0.011384844779968262,0.020500898361206055,-0.008939675986766815,0.0018271803855895996,-0.004881481174379587,0.44376593828201294,0.5364307165145874,-0.7178537249565125,0.5536831645126588,-0.5662020865993891,0.7606023924230794,64
18:13:24,-0.007318317890167236,0.004165172576904297,0.014211416244506836,0.005695724859833717,-0.006879223510622978,-0.0049877408891916275,0.4437177777290344,0.5363109111785889,-0.7179729342460632,0.5535603659674545,-0.5660601501461416,0.7603137662673007,64
18:13:24,-0.006762862205505371,0.009473979473114014,0.01832425594329834,0.011756546795368195,0.002905230037868023,0.0011348668485879898,0.4431318938732147,0.5358849763870239,-0.7186524868011475,0.5525469046740505,-0.5655555933782034,0.7593059600468299,64
18:13:25,-0.004306048154830933,0.006196260452270508,0.017333567142486572,0.005713301710784435,0.00047110021114349365,-0.004915835335850716,0.44314706325531006,0.5352566242218018,-0.7191113233566284,0.5522771015708569,-0.5648114991946953,0.7590065225132883,64
18:13:25,-0.005369901657104492,0.0039386749267578125,0.021685481071472168,0.009373283945024014,0.0016913600265979767,-0.00370862428098917,0.44320371747016907,0.5345691442489624,-0.7195875644683838,0.5520385260485647,-0.5639978394413384,0.7584242180894999,64
18:13:25,-0.002886056900024414,0.003286600112915039,0.020514726638793945,0.006872311234474182,0.0005190372467041016,0.0011119628325104713,0.443191796541214,0.5342445969581604,-0.7198358774185181,0.5518724670791115,-0.5636138986112547,0.758034974914046,64
18:13:25,-0.007259666919708252,0.002111375331878662,0.016759872436523438,0.0020019225776195526,-0.0019230805337429047,-0.0013125785626471043,0.4431708753108978,0.5339550375938416,-0.7200635671615601,0.5517102157731363,-0.5632713905632669,0.7577587229750256,64
18:13:25,-0.007778644561767578,0.0017796158790588379,0.017691731452941895,0.006852603517472744,-0.001875145360827446,0.0034896330907940865,0.4432016611099243,0.5333104133605957,-0.7205222249031067,0.5514570060752778,-0.5625091224749141,0.7574463124726648,64
18:13:25,-0.00740969181060791,0.001037299633026123,0.017679452896118164,0.013076944276690483,-0.0019230805337429047,-0.004989339038729668,0.4433211088180542,0.532588005065918,-0.7209829092025757,0.5512920359814566,-0.5616554215362239,0.7569044996717481,64
18:13:25,-0.008045792579650879,0.004989981651306152,0.01952451467514038,-0.01991483010351658,0.0029499707743525505,-0.01083764061331749,0.44296565651893616,0.533030092716217,-0.7208747863769531,0.5510011317138598,-0.5621778089355066,0.7563253114750738,64
18:13:25,-0.006886661052703857,0.006484627723693848,0.015841245651245117,0.004423534497618675,0.0067018307745456696,0.003583642654120922,0.4432866871356964,0.5344804525375366,-0.7196023464202881,0.5521129340463355,-0.563892943737593,0.7566038662556498,64
18:13:25,-0.003839254379272461,0.0051912665367126465,0.01791667938232422,0.0031926222145557404,0.012767181731760502,0.003667798824608326,0.4441607892513275,0.5343090295791626,-0.7191905975341797,0.5532488812779313,-0.5636900848566236,0.7571320892757654,64
18:13:25,-0.01288112998008728,-0.003142118453979492,0.013971328735351562,0.011896630749106407,0.015286796726286411,-0.003625268116593361,0.44537490606307983,0.5338228940963745,-0.7188005447387695,0.5547128613864736,-0.5631151156261947,0.7573091866747645,64
18:13:26,-0.005656987428665161,0.003920078277587891,0.01713109016418457,0.015535040758550167,0.026127727702260017,-0.0034750658087432384,0.4464667737483978,0.5341001749038696,-0.71791672706604,0.5563613219642125,-0.5634430359887407,0.7564929741279888,64
18:13:26,-0.005145013332366943,0.011402487754821777,0.011185765266418457,0.008244902826845646,0.03477101773023605,-0.004590396769344807,0.44842657446861267,0.5339877009391785,-0.716778039932251,0.5590409155220625,-0.5633100201303564,0.7558086375556641,64
18:13:26,-0.006610214710235596,-0.013202846050262451,0.03385424613952637,-0.04271521419286728,-0.030205586925148964,0.0361357256770134,0.449769526720047,0.5330497026443481,-0.7166347503662109,0.5604763722280195,-0.5622009909264928,0.7563759925668195,64
18:13:26,-0.003965467214584351,0.015369653701782227,0.006638288497924805,-0.01564285345375538,0.01405215635895729,-0.05068838223814964,0.45019134879112244,0.5373744964599609,-0.7131313681602478,0.563108355703307,-0.5673208254629244,0.7622026672945073,64
18:13:26,-0.00554424524307251,0.002812623977661133,0.01581096649169922,0.03720278665423393,0.022673076018691063,-0.06052450090646744,0.4482756555080414,0.5396161675453186,-0.7126453518867493,0.5614923963772802,-0.5699811648705956,0.7552581077580615,64
18:13:26,-0.011297166347503662,0.0024154186248779297,0.02392745018005371,0.00016247667372226715,0.03612709790468216,-0.03724315017461777,0.4475737512111664,0.5409435629844666,-0.7120798826217651,0.5611439777660252,-0.5715585959554238,0.7505527299540432,64
