Time,Acce_X,Acce_Y,Acce_Z,Gyro_X,Gyro_Y,Gyro_Z,Gravity_X,Gravity_Y,Gravity_Z,Roll,Pitch,Yaw,Heart_Rate
23:43:20,-0.005302365869283676,0.06943446397781372,-0.006346642971038818,-0.013547342270612717,0.06889239698648453,0.04748714342713356,-0.033393897116184235,-0.46657460927963257,-0.8838512301445007,-0.037764299758480765,0.4854140473121892,0.02373085281399915,
23:43:20,-0.017203032970428467,-0.026888728141784668,0.03210574388504028,-0.27120471000671387,0.05330225080251694,-0.09680639207363129,-0.03673675283789635,-0.4075438678264618,-0.9124463796615601,-0.0402400876685443,0.4197628090191018,0.027607799721721574,
23:43:20,0.029220150783658028,-0.0049582719802856445,0.023765921592712402,-0.4942369759082794,0.18218939006328583,-0.1503007709980011,-0.023696457967162132,-0.41073673963546753,-0.9114460349082947,-0.025992895360271627,0.42326196191150894,0.01814884167818882,
23:43:20,-0.004877359606325626,-0.04161295294761658,0.11409223079681396,-2.86476993560791,0.32488980889320374,-0.2456563264131546,-0.0033166087232530117,-0.27284005284309387,-0.9620537161827087,-0.003447412056690119,0.2763438525887576,-0.005113014337445559,
23:43:20,0.05287947133183479,0.17558246850967407,0.07938015460968018,-3.9779748916625977,0.44753265380859375,0.11715304106473923,0.031776268035173416,0.11187778413295746,-0.9932137727737427,0.03198247245031446,-0.11211250113758994,0.0026161108866374684,
23:43:20,0.11988743394613266,-0.07923614978790283,0.08319610357284546,-3.8792474269866943,-0.18610846996307373,0.8077272176742554,0.05999840423464775,0.47370612621307373,-0.8786368370056152,0.06817993774515102,-0.4934942752174636,0.05151576628789529,
23:43:20,0.01083289086818695,0.11488074064254761,0.05026805400848389,-2.8796803951263428,-0.4631161093711853,0.4850271940231323,0.07162555307149887,0.7378408908843994,-0.6711636781692505,0.10631606766894694,-0.8298659671215691,0.16797984534219165,
23:43:20,0.02115257829427719,0.139015793800354,-0.0008062124252319336,-2.072772741317749,-0.14364224672317505,0.38434770703315735,0.07592379301786423,0.8588170409202576,-0.5066250562667847,0.14875488389537556,-1.0329560256189896,0.26648438177134276,
23:43:20,-0.054431259632110596,-0.07917279005050659,-0.04372328519821167,-0.303766667842865,-0.3926030397415161,-0.036928940564394,0.07236029952764511,0.8746283054351807,-0.47936350107192993,0.14981969052372127,-1.0646685530794846,0.2982693810435994,
23:43:20,0.02625751495361328,0.05547302961349487,0.05544149875640869,-0.2756463289260864,-0.15270976722240448,0.09600328654050827,0.07527441531419754,0.8992840647697449,-0.43083858489990234,0.17297013258765387,-1.1181297912264572,0.33935718428028117,
23:43:21,0.03607170283794403,0.08669698238372803,0.09241509437561035,-0.2848441004753113,-0.25199025869369507,0.03218941390514374,0.07640072703361511,0.9265159964561462,-0.3684169054031372,0.20447744479000776,-1.1850449150777744,0.40193553888587114,
23:43:21,0.04445744305849075,0.09021729230880737,-0.04373544454574585,0.09792405366897583,-0.06495088338851929,0.10506361722946167,0.08849227428436279,0.9356604814529419,-0.3416261374950409,0.253461612865206,-1.210126084270997,0.4668111878993731,
23:43:21,0.013356372714042664,0.09188270568847656,-0.005973756313323975,0.8277401924133301,0.1292702555656433,0.14752799272537231,0.1077982485294342,0.9202466607093811,-0.37619879841804504,0.2790683918314262,-1.1687103283345621,0.4858213744398106,
23:43:21,0.021838977932929993,0.08221942186355591,0.08569031953811646,0.8489869236946106,0.06868094205856323,0.3611198961734772,0.13822564482688904,0.9018345475196838,-0.40937539935112,0.32563059174053477,-1.1239967522830847,0.5312160707442812,
23:43:21,-0.007131949067115784,0.021353185176849365,0.04852563142776489,1.1304746866226196,-0.18130278587341309,0.3320735991001129,0.16702863574028015,0.8723837733268738,-0.45939958095550537,0.3487214992057979,-1.060057895122609,0.5607781294430029,
23:43:21,-0.03180310130119324,0.00796818733215332,0.006695449352264404,0.4478490352630615,-0.06357776373624802,0.46920135617256165,0.19223381578922272,0.8556174039840698,-0.4805881381034851,0.38050381299759695,-1.0267424994427632,0.6218707625176209,
23:43:21,0.021848827600479126,-0.06519275903701782,0.0453607439994812,0.2448195070028305,0.015257930383086205,0.3812049329280853,0.22346654534339905,0.8445348143577576,-0.48664531111717224,0.4304765855969959,-1.005695845651551,0.6833394686724057,
23:43:21,0.05696877837181091,-0.054099857807159424,0.11182236671447754,0.1668272316455841,-0.3991653323173523,0.02642500214278698,0.2252272069454193,0.8406292200088501,-0.4925597906112671,0.4288737555713735,-0.9984439224475087,0.7110088486342941,
23:43:21,0.05978429317474365,-0.10935401916503906,0.06452327966690063,1.0050071477890015,-0.37197446823120117,-0.4330320656299591,0.18330346047878265,0.7948856353759766,-0.5784087777137756,0.30689736967437575,-0.9188190616846079,0.6201740753911299,
23:43:21,-0.01701010763645172,0.13465160131454468,-0.127221941947937,0.011484773829579353,0.27847811579704285,-0.04011061415076256,0.1582455039024353,0.7763746380805969,-0.6100826859474182,0.25379070009210863,-0.8888931794073825,0.5558285047971031,
23:43:22,0.038485005497932434,0.020579755306243896,0.02178812026977539,-0.053808748722076416,0.2340366244316101,0.06024235114455223,0.18273699283599854,0.7841691374778748,-0.5930312275886536,0.29890839571113736,-0.9013560400075886,0.567872592901337,
23:43:22,0.053833961486816406,-0.11373013257980347,0.05893051624298096,0.03841625526547432,-0.07190652936697006,-0.10413140803575516,0.19827181100845337,0.7817143797874451,-0.5912790298461914,0.3235437413618386,-0.8974101140736732,0.5815195025788357,
23:43:22,0.010763198137283325,0.02782493829727173,-0.02985513210296631,-0.37343814969062805,-0.2740103602409363,-0.6308979988098145,0.15473365783691406,0.7961041331291199,-0.5850434303283691,0.2585619867802716,-0.9208299257811396,0.5323810788560388,
23:43:22,0.019970357418060303,0.054763197898864746,0.01866281032562256,0.10672233998775482,-0.06629765033721924,-0.5134398341178894,0.10623514652252197,0.8081064820289612,-0.579377293586731,0.18134645293150645,-0.9409303688204298,0.4473428723608147,
23:43:22,-0.0026860088109970093,0.018954813480377197,0.037014007568359375,-0.6611988544464111,-0.07376541942358017,-0.16904382407665253,0.08755546808242798,0.8085299134254456,-0.5819050073623657,0.1493432272571754,-0.9416496273555743,0.3952151108999471,
23:43:22,0.007202357053756714,-0.10699915885925293,-0.016843318939208984,-1.0064544677734375,-0.016702398657798767,0.17427997291088104,0.09255963563919067,0.8443651795387268,-0.5277122259140015,0.17363175139010964,-1.0053792097303336,0.42864475265947943,
23:43:22,0.015409290790557861,-0.04118138551712036,0.05659198760986328,-0.020749863237142563,0.04291059821844101,0.02557438798248768,0.10463161766529083,0.8556347489356995,-0.5068939924240112,0.20355823358032912,-1.0267759476683116,0.4542774402537351,
23:43:22,0.033809833228588104,-0.018803060054779053,0.03621584177017212,-0.5463300347328186,-0.1219787523150444,0.011564030312001705,0.1087072566151619,0.8714794516563416,-0.47823241353034973,0.2235125386023375,-1.0582109103209885,0.47569031700061243,
23:43:22,0.029852062463760376,-0.051726460456848145,0.022249579429626465,-0.42553651332855225,-0.16381435096263885,0.12439044564962387,0.11347372084856033,0.8905934691429138,-0.4404168725013733,0.25216626851100554,-1.098648348103092,0.518062149017089,
23:43:22,0.012751497328281403,-0.00518721342086792,0.019313275814056396,0.044765762984752655,-0.02340450882911682,0.14565126597881317,0.11923696100711823,0.8896167278289795,-0.4408681094646454,0.2641400438194206,-1.096505316200026,0.5401417028705919,97
23:43:23,-0.0008875280618667603,-0.02971571683883667,0.05494248867034912,0.07360726594924927,-0.09447522461414337,0.08314739912748337,0.12433111667633057,0.8865880370140076,-0.4455370604991913,0.27213588072469375,-1.0899159963271197,0.5573694105726661,97
23:43:23,0.01154286414384842,-0.028415977954864502,0.008487939834594727,-0.01749255135655403,-0.11256421357393265,0.030050896108150482,0.12107132375240326,0.8884016871452332,-0.44281384348869324,0.2668907305366443,-1.093851675209764,0.5674332655195647,97
23:43:23,0.005683675408363342,-0.007525324821472168,0.01039201021194458,-0.01855595037341118,-0.006112338975071907,0.03476814925670624,0.12195616960525513,0.8890414237976074,-0.4412845969200134,0.269635966627627,-1.0952471121532068,0.5760141182165271,97
23:43:23,0.022449985146522522,-0.011360526084899902,0.011606037616729736,-0.018178049474954605,-0.039009835571050644,0.0053564682602882385,0.12237125635147095,0.8899469375610352,-0.4393400251865387,0.2716490184016202,-1.0972288726804753,0.5807628779680675,97
23:43:23,0.00923091173171997,-0.005998849868774414,0.021953821182250977,-0.06016198545694351,0.005115281790494919,0.03862174600362778,0.12516853213310242,0.8899254202842712,-0.4385949373245239,0.27799544102987156,-1.0971816712402385,0.587587178770516,97
23:43:23,0.0205087810754776,-0.005947113037109375,0.006116330623626709,0.05014987662434578,-0.022061210125684738,0.023435337468981743,0.1282643973827362,0.8894612789154053,-0.43864205479621887,0.28448127246443605,-1.0961650576356725,0.5969229704260699,97
23:43:23,-0.0010483264923095703,-0.025426089763641357,0.016231000423431396,0.009914040565490723,0.021026603877544403,0.02275383472442627,0.13212117552757263,0.8868446946144104,-0.44277581572532654,0.2899817586445958,-1.0904711191917102,0.6029525829161401,97
23:43:23,0.006826803088188171,-0.024902701377868652,0.026357293128967285,-0.02030298486351967,0.0026747602969408035,-0.009961236268281937,0.1315550059080124,0.88630610704422,-0.44402146339416504,0.28804114309028794,-1.0893067730036128,0.5995794428985527,97
23:43:23,-0.00134219229221344,-0.011176049709320068,-0.0024701952934265137,-0.027234656736254692,0.04682464525103569,-0.03128676488995552,0.13105694949626923,0.887349545955658,-0.4420802593231201,0.288201437280005,-1.091564853964072,0.5963035401947646,97
23:43:23,0.009987741708755493,0.009171128273010254,0.028909742832183838,-0.08155728131532669,0.13229399919509888,0.00858448538929224,0.13365833461284637,0.8899213075637817,-0.43609127402305603,0.2974017291039775,-1.0971725567472737,0.597727948203884,97
23:43:24,-0.0038688480854034424,0.025727391242980957,0.00839853286743164,0.0302446149289608,0.24995432794094086,0.09753326326608658,0.14662997424602509,0.8895857334136963,-0.4325932562351227,0.3268021792693852,-1.0964373812792885,0.6096280681928995,97
23:43:24,0.020627453923225403,-0.0355987548828125,0.052649617195129395,-0.06587499380111694,0.20444996654987335,0.12659181654453278,0.16462935507297516,0.8876181244850159,-0.4301525056362152,0.3655244686550846,-1.0921476877411325,0.6303717733864879,97
23:43:24,0.03994685411453247,-0.04458308219909668,0.07834535837173462,-0.14446327090263367,-0.15907393395900726,0.08093457669019699,0.17750602960586548,0.8886986970901489,-0.42273658514022827,0.39754084114019894,-1.0944990763347322,0.6594742322432001,97
23:43:24,-0.008345037698745728,-0.0652804970741272,-0.05753082036972046,0.4342306852340698,-0.38319650292396545,-0.17538215219974518,0.16744816303253174,0.8882465362548828,-0.4277605712413788,0.37311664165552716,-1.093513863456041,0.66245243283618,97
23:43:24,-0.019563615322113037,0.053170084953308105,-0.0633080005645752,0.7651644349098206,0.24665945768356323,-0.337628573179245,0.12657327950000763,0.8547568917274475,-0.5033584833145142,0.24634999116188225,-1.0250823227923815,0.5408274300215862,97
23:43:24,0.023327231407165527,0.03527867794036865,0.029314160346984863,0.5608288645744324,0.31705665588378906,0.09114061295986176,0.13836996257305145,0.8294204473495483,-0.5412166714668274,0.2503029349327141,-0.9780694730384935,0.5102997840239585,97
23:43:24,-0.004569008946418762,-0.06616568565368652,0.04318892955780029,0.1783699095249176,0.3203626871109009,0.2816453278064728,0.17821374535560608,0.8162406086921692,-0.5495373606681824,0.3135966426889875,-0.9548733905591634,0.5417054239956729,97
23:43:24,0.029046162962913513,-0.03802686929702759,0.06408190727233887,-0.1945384293794632,0.24872846901416779,0.14204107224941254,0.20718997716903687,0.8169710636138916,-0.538173496723175,0.367497794662219,-0.9561388915449205,0.5737319386705797,97
23:43:24,0.03177343308925629,-0.10082340240478516,0.1364344358444214,-0.5526928305625916,-0.3549771308898926,0.06986594945192337,0.2164561003446579,0.8392249345779419,-0.49884697794914246,0.4093955845670789,-0.9958563772204837,0.6228072602872595,97
23:43:24,-0.010716989636421204,-0.09638583660125732,-0.12588882446289062,1.0165308713912964,-0.10032645612955093,-0.33718252182006836,0.17157472670078278,0.844430685043335,-0.5074436664581299,0.32604861629176496,-1.0055014283497616,0.600894784452737,97
23:43:25,-0.027064591646194458,0.1254948377609253,-0.04354047775268555,0.6371598839759827,0.44937530159950256,-0.09175463020801544,0.15867125988006592,0.7905493974685669,-0.5914855599403381,0.2620883268536774,-0.9117055680727159,0.5004919519235962,97
23:43:25,0.009539201855659485,0.0950726866722107,0.012558817863464355,0.7336131930351257,0.4718020260334015,0.36433300375938416,0.1980714648962021,0.7636445164680481,-0.6145036816596985,0.3118128637567046,-0.8689393014708481,0.49887920470708846,97
23:43:25,0.02835637331008911,-0.1773834228515625,0.12340903282165527,0.44986557960510254,0.25339698791503906,-0.04690753296017647,0.24070128798484802,0.7121565341949463,-0.6594663858413696,0.34996957965896835,-0.7925653479185668,0.4899175159986629,97
23:43:25,0.020826905965805054,-0.04257857799530029,0.0705341100692749,-0.3103923499584198,-0.39922234416007996,-0.43273407220840454,0.21502777934074402,0.7156424522399902,-0.6645441651344299,0.312939628404318,-0.7975434357504103,0.4476437556438914,97
23:43:25,0.009737491607666016,-0.01631098985671997,-0.025440216064453125,-0.7541415691375732,-0.4879024028778076,-0.16904541850090027,0.16032147407531738,0.7434523105621338,-0.6492887139320374,0.2420764538046664,-0.8382176522791864,0.4220486177318587,97
23:43:25,-0.0005565434694290161,-0.12522339820861816,0.0786738395690918,-2.359424352645874,-0.17066799104213715,-0.22104550898075104,0.1341775506734848,0.8261194825172424,-0.547287106513977,0.2404262178303513,-0.9721859832747523,0.44396337209225867,97
23:43:25,0.005644559860229492,0.07136327028274536,-0.04909360408782959,-1.4988460540771484,0.013803844340145588,-0.15627823770046234,0.10461524873971939,0.9183810949325562,-0.3816174268722534,0.26756319985003735,-1.1639696043661765,0.4874890710038476,97
23:43:25,0.01239166408777237,-0.038011908531188965,0.014811158180236816,-0.7205350995063782,0.13771753013134003,-0.011743157170712948,0.10706906020641327,0.9527427554130554,-0.28428366780281067,0.3601967881244303,-1.2621405327966444,0.5765524660601353,97
23:43:25,0.005036741495132446,-0.0180475115776062,0.020122051239013672,-0.10660059005022049,-0.11106911301612854,-0.07607846707105637,0.10520773380994797,0.9629913568496704,-0.24815133213996887,0.400994555975881,-1.2978889447876463,0.6201780069364436,97
23:43:25,0.019069604575634003,0.01786404848098755,-0.00026738643646240234,-0.12677109241485596,0.1297791749238968,0.17811785638332367,0.11468861252069473,0.9672863483428955,-0.2262820452451706,0.46910400765850985,-1.3143061569918362,0.6903529247085993,97
23:43:26,0.03112111985683441,-0.034870684146881104,0.053657591342926025,-0.550347626209259,-0.02533450350165367,0.05127815157175064,0.12219875305891037,0.9732064604759216,-0.19477371871471405,0.5603149136483984,-1.338787461048283,0.7731956963444783,97
23:43:26,-0.01248769462108612,0.04369240999221802,-0.017727434635162354,-0.13032375276088715,-0.0247933492064476,0.22507259249687195,0.14047792553901672,0.9755911827087402,-0.16878366470336914,0.694125643549317,-1.3493973930071694,0.9177396868488558,97
23:43:26,0.05521649122238159,0.04425048828125,0.0013083815574645996,-0.1299208104610443,0.008045024238526821,0.3754572868347168,0.16585229337215424,0.9745451211929321,-0.15084728598594666,0.8327420729162298,-1.3446830716463123,1.0555469106335946,97
23:43:26,0.006947904825210571,0.0035123229026794434,0.030463755130767822,0.010667450726032257,-0.13909569382667542,0.4557015299797058,0.20607921481132507,0.9676294326782227,-0.1456863135099411,0.9554256289803227,-1.3156621466290832,1.188554648629142,97
23:43:26,-0.01110251247882843,-0.03472614288330078,0.03308248519897461,0.061691753566265106,-0.1819949448108673,0.3885405957698822,0.24436257779598236,0.9579092860221863,-0.15065500140190125,1.018316517502562,-1.2796284907574202,1.2712738292923786,97
23:43:26,0.005143314599990845,-0.011251628398895264,0.021425068378448486,-0.016074413433670998,-0.22489102184772491,0.42354172468185425,0.2788369357585907,0.9477867484092712,-0.15475961565971375,1.0641084251401356,-1.2462225304813643,1.3375625264527942,97
23:43:26,-0.006955623626708984,-0.02088087797164917,0.021723389625549316,-0.005825238302350044,-0.12318915873765945,0.40997105836868286,0.3151055872440338,0.9349395632743835,-0.16308419406414032,1.0932042500550194,-1.2080887587116305,1.3902225598460711,97
23:43:26,0.009532839059829712,-0.07616806030273438,-0.010385453701019287,-0.24698112905025482,-0.08727110922336578,0.32415202260017395,0.34608709812164307,0.925239622592926,-0.1554199606180191,1.1487097256332712,-1.1816667170839086,1.4639712326098688,97
23:43:26,-0.011751651763916016,-0.08436465263366699,0.017299294471740723,-1.2657827138900757,0.020193833857774734,0.1575753092765808,0.37104877829551697,0.9247537851333618,-0.08457913249731064,1.3466795010095443,-1.1803880812064056,1.6785695655698942,97
23:43:26,-0.024357616901397705,0.08966994285583496,0.05048036575317383,-0.6371771097183228,0.056849583983421326,0.058473214507102966,0.37950432300567627,0.9251881241798401,0.001868275343440473,1.575719222416432,-1.1815309739116608,1.9248895122159078,97
23:43:27,-0.025399386882781982,0.003068387508392334,0.004666328430175781,-0.6316350698471069,-0.042206428945064545,-0.09256476908922195,0.3840707242488861,0.9216252565383911,0.055646784603595734,1.7146819018767343,-1.1722478051523681,2.075196379547191,97
23:43:27,-0.03422456979751587,-0.017975032329559326,-0.0018056631088256836,-0.01278194971382618,0.299058735370636,0.030431196093559265,0.3839236795902252,0.9195514917373657,0.08383190631866455,1.785777653647121,-1.1669376873882717,2.1281758585830137,97
23:43:27,0.060209721326828,-0.027913033962249756,0.053299546241760254,0.06573469936847687,0.36771851778030396,-0.0539257638156414,0.38575705885887146,0.9171298146247864,0.10032067447900772,1.825222275797328,-1.160818898438264,2.124256215893558,97
23:43:27,-0.018475383520126343,-0.002269268035888672,0.09879934787750244,0.892824113368988,0.16778142750263214,-0.20332802832126617,0.3728131949901581,0.9245823621749878,0.07847223430871964,1.7782546542013782,-1.1799379621822437,2.049316881330845,97
23:43:27,0.07967576384544373,-0.022192537784576416,0.061909019947052,1.4907461404800415,-0.1521526426076889,-0.2767271399497986,0.3431130349636078,0.9387528300285339,-0.03188450261950493,1.4781353316800847,-1.21899291886183,1.7369281013803215,97
23:43:27,-0.020835161209106445,-0.13698416948318481,0.10343170166015625,0.6767453551292419,-0.1618627905845642,-0.05196887254714966,0.32510897517204285,0.9317029118537903,-0.16196875274181366,1.1085910934258796,-1.1990732937525048,1.3632651428805118,97
23:43:27,0.04212385416030884,-0.01918041706085205,0.03714275360107422,0.5864628553390503,-0.04524296149611473,-0.14123137295246124,0.31259551644325256,0.9226939678192139,-0.22565412521362305,0.9455411031904748,-1.1750106712388595,1.204504713339039,97
23:43:27,0.04332074522972107,0.05542314052581787,-0.03782773017883301,0.43469753861427307,-0.025762740522623062,-0.06051122769713402,0.29870349168777466,0.9233472347259521,-0.24125932157039642,0.8913849623869103,-1.1767086749409925,1.143021489245721,97
23:43:27,-0.043858885765075684,-0.0179215669631958,0.06169837713241577,0.18732291460037231,0.09068690240383148,-0.04259614646434784,0.2960851788520813,0.9145234823226929,-0.2756454348564148,0.8211335802794284,-1.1543283721326105,1.0619660829125452,97
23:43:27,-0.016440868377685547,-0.04171860218048096,-0.013246536254882812,-0.20337346196174622,0.05793561786413193,-0.04616637900471687,0.29552268981933594,0.9073606729507446,-0.2989363670349121,0.7796557343233814,-1.136962055438099,1.0075927642473614,97
23:43:28,0.014363884925842285,-0.03155779838562012,0.033807456493377686,0.15280675888061523,-0.10910956561565399,0.023369822651147842,0.29502177238464355,0.8981454968452454,-0.32603201270103455,0.7355079746278894,-1.1155335288686479,0.9593300435901694,97
23:43:28,0.03193429112434387,-0.1275409460067749,-0.01669377088546753,0.40143758058547974,0.004678255878388882,0.044014912098646164,0.3004463315010071,0.8808321952819824,-0.3658779561519623,0.6875141212334508,-1.077617176390201,0.90511267861247,97
23:43:28,-0.0032619237899780273,-0.11154592037200928,0.04051852226257324,0.30246973037719727,-0.0036838017404079437,-0.06094026565551758,0.3019358515739441,0.8710321187973022,-0.3874761462211609,0.6619518721183043,-1.0572995680669945,0.8697780350014845,97
23:43:28,0.12552908062934875,-0.01318734884262085,0.02801591157913208,0.22566711902618408,0.09444595873355865,-0.06694436073303223,0.28291675448417664,0.8631128668785095,-0.41832348704338074,0.5946497578790939,-1.0414014820002224,0.795640228250189,97
23:43:28,0.10242801904678345,0.03936976194381714,0.023550450801849365,0.38441625237464905,-0.05151444301009178,-0.06174667179584503,0.2717159390449524,0.8571402430534363,-0.43758559226989746,0.5556769746321191,-1.0296917420982459,0.7487310256636913,97
23:43:28,0.014503896236419678,0.02141749858856201,-0.014575302600860596,0.6818389296531677,0.12344618141651154,-0.016496632248163223,0.275380939245224,0.8287363052368164,-0.48719772696495056,0.5144642473570535,-0.9768458110156063,0.7018373874976264,97
23:43:28,0.003984600305557251,-0.02035754919052124,0.008647680282592773,0.3494556248188019,0.10394598543643951,0.012541409581899643,0.28258901834487915,0.8107427358627319,-0.512678861618042,0.5037646731966041,-0.9454197378585528,0.6750324536192234,97
23:43:28,0.024956822395324707,-0.05327481031417847,0.026395678520202637,0.01694372296333313,-0.06942126899957657,-0.14515100419521332,0.2768605053424835,0.8054524064064026,-0.5240179896354675,0.4860629856730634,-0.9364383860644957,0.6539463778912811,97
23:43:28,-0.004200011491775513,0.08413803577423096,-0.007774174213409424,-0.013600870966911316,-0.14076443016529083,-0.08151558041572571,0.25586187839508057,0.8169807195663452,-0.5167950391769409,0.4597147577956543,-0.9561557165021431,0.6387420401178785,97
23:43:28,0.021684914827346802,0.03308451175689697,-0.04697531461715698,0.28186139464378357,0.017891796305775642,0.1850588619709015,0.2578701972961426,0.8162923455238342,-0.5168849229812622,0.46276151528944875,-0.9549629301561714,0.6500956486061029,97
23:43:29,-0.007763504981994629,-0.07049018144607544,-0.012114644050598145,0.3713502585887909,-0.037206877022981644,0.1708165407180786,0.27369225025177,0.7944087386131287,-0.5422242879867554,0.46744703867367543,-0.9180335281386915,0.6575192700259235,97
23:43:29,-0.03353571891784668,0.007776379585266113,-0.045149266719818115,0.18265733122825623,-0.17163525521755219,0.06739800423383713,0.27373820543289185,0.7794817090034485,-0.5634497404098511,0.452243790031384,-0.8938380005547195,0.6516597982318701,97
23:43:29,-0.04621732234954834,-0.009820997714996338,0.013177573680877686,0.004106753505766392,-0.0622594952583313,-0.015539226122200489,0.26943692564964294,0.7689880132675171,-0.5797078013420105,0.4350772076249194,-0.8772566279621156,0.6415177181889149,97
23:43:29,0.042401283979415894,-0.021299004554748535,0.00962984561920166,-0.22639358043670654,-0.03537382185459137,0.002678925869986415,0.2668015956878662,0.7742099165916443,-0.5739476084709167,0.43513726633559485,-0.8854658449603423,0.6502790116284561,97
23:43:29,0.02515256404876709,-0.09649062156677246,0.011432766914367676,-0.11680342257022858,-0.43658915162086487,-0.18819569051265717,0.24926044046878815,0.7802793979644775,-0.5736141800880432,0.40992641346173525,-0.8951124315571708,0.6427265130270937,97
23:43:29,-0.0234968364238739,-0.042341768741607666,-0.049407958984375,0.15840312838554382,-0.16973748803138733,-0.2931506037712097,0.21287281811237335,0.7826035022735596,-0.5849931836128235,0.3489944697553165,-0.8988370436737431,0.6077648840839744,97
23:43:29,-0.02302497625350952,0.02743697166442871,-0.027997076511383057,0.0003519635647535324,-0.092318594455719,-0.36073097586631775,0.18128836154937744,0.7793681621551514,-0.5997664928436279,0.29353339577954796,-0.8936567619599141,0.5505296679985306,97
23:43:29,-0.02415555715560913,0.025606989860534668,-0.030307769775390625,-0.042968347668647766,0.10675323009490967,-0.03664744272828102,0.16922025382518768,0.7772924304008484,-0.605954647064209,0.2723244378439969,-0.8903506892993818,0.5207933568226102,97
23:43:29,-0.0020941495895385742,0.062021076679229736,-0.04169046878814697,-0.04439873248338699,0.32676681876182556,0.2765357792377472,0.1922791302204132,0.7820928692817688,-0.592755913734436,0.313672506678972,-0.8980172391441065,0.5500284789098964,97
23:43:29,0.012766152620315552,-0.016001462936401367,0.07023942470550537,-0.17196068167686462,0.21649037301540375,0.26754894852638245,0.22720806300640106,0.7823410034179688,-0.5799301862716675,0.3734046469477121,-0.8984155083084007,0.5923429217901515,97
23:43:30,0.03704254329204559,-0.1255425214767456,0.10176289081573486,-0.5338938236236572,-0.3658939301967621,0.03940284997224808,0.23943054676055908,0.8025566935539246,-0.5464209318161011,0.4129807599808556,-0.9315685918449272,0.6456102005885171,97
23:43:30,0.007573738694190979,-0.0932854413986206,-0.012259364128112793,0.1499909907579422,-0.4710856080055237,-0.27066901326179504,0.20183706283569336,0.8171133399009705,-0.5399885773658752,0.35770083949655224,-0.9563856382520004,0.639738566294657,97
23:43:30,-0.0521097332239151,0.03133589029312134,-0.08459019660949707,0.10205861181020737,0.06893473863601685,-0.16470366716384888,0.1672823578119278,0.8044150471687317,-0.5700289011001587,0.285448743593849,-0.9346901921583182,0.576197882955967,97
23:43:30,0.008854955434799194,0.055403828620910645,-0.031767189502716064,0.1350645124912262,0.36988499760627747,0.06563498824834824,0.17811036109924316,0.8027933835983276,-0.5690339207649231,0.30334469301955785,-0.9319653891019929,0.5686200920114595,97
23:43:30,0.10372215509414673,0.016759097576141357,0.021029353141784668,-0.1697625070810318,0.19563809037208557,0.371367484331131,0.21410243213176727,0.794410765171051,-0.568394124507904,0.360242345618778,-0.918036836470623,0.6022970976847358,97
23:43:30,-0.02323770523071289,-0.021803975105285645,0.11838603019714355,0.25743409991264343,-0.20308533310890198,0.4867563843727112,0.25398021936416626,0.7776605486869812,-0.5750983953475952,0.4158709536815227,-0.8909360098218673,0.6698712045360026,97
23:43:30,-0.017838656902313232,-0.0697561502456665,0.10170114040374756,-0.23702359199523926,-0.6865103244781494,0.28685232996940613,0.24891693890094757,0.7674311995506287,-0.5908382534980774,0.39872792827871345,-0.874824807476376,0.7100980390440523,97
23:43:30,-0.08395373821258545,-0.10169589519500732,0.011506855487823486,0.1225079670548439,-0.3932214379310608,-0.050678834319114685,0.22503575682640076,0.7594540119171143,-0.610400378704071,0.3532087701833077,-0.8624734280115391,0.7177334149842586,97
23:43:30,-0.05811578035354614,0.1744585633277893,-0.13380151987075806,0.514011800289154,-0.12909898161888123,-0.48668625950813293,0.1906072199344635,0.7606127262115479,-0.6205942630767822,0.2979912285719375,-0.8642564267369327,0.6705297315402402,97
23:43:30,-0.020978540182113647,0.1616268754005432,-0.17345023155212402,-0.17008155584335327,0.1351555734872818,-0.046777572482824326,0.16723348200321198,0.749671220779419,-0.6403326988220215,0.2554604198960915,-0.8475651851485093,0.6121531768604144,97
23:43:31,0.009418278932571411,-0.035436809062957764,0.00984501838684082,-0.1805696189403534,0.5168706774711609,0.15191076695919037,0.19958068430423737,0.7472720742225647,-0.6338391304016113,0.3050479526618561,-0.8439474323781126,0.6296029226534751,97
23:43:31,0.029809415340423584,-0.04429173469543457,0.04182910919189453,0.10070359706878662,0.388152152299881,0.07083640992641449,0.2339685559272766,0.7413719296455383,-0.6289884448051453,0.3561167989693155,-0.8351123971085822,0.6405665818982156,97
23:43:31,0.027585923671722412,-0.0763247013092041,0.07705807685852051,0.04875944182276726,0.20382411777973175,-0.09062013030052185,0.2541515529155731,0.7351053953170776,-0.6285118460655212,0.3842682327334349,-0.825822113872036,0.637837458119949,97
23:43:31,0.008714824914932251,-0.014962911605834961,0.05487942695617676,-0.0197658222168684,-0.26522380113601685,-0.2691435217857361,0.2367221713066101,0.7408825755119324,-0.6285345554351807,0.3601950245541914,-0.8343835128839515,0.6084745476680942,97
23:43:31,-0.006365939974784851,0.0607181191444397,-0.058232784271240234,-0.07581444829702377,-0.47589874267578125,-0.2395257204771042,0.19253796339035034,0.7575936317443848,-0.6236833930015564,0.29942931544240975,-0.8596185758208114,0.5771521108965401,97
23:43:31,-0.044246286153793335,0.03224712610244751,-0.09108078479766846,-0.4123344123363495,-0.021579446271061897,-0.09566841274499893,0.15833579003810883,0.7771989107131958,-0.6090087890625,0.25435806232701413,-0.8902020398583446,0.5657251041635841,97
23:43:31,0.025458797812461853,-0.024506449699401855,0.04395699501037598,-0.2541048228740692,0.4243530333042145,-0.027884041890501976,0.17281334102153778,0.8065014481544495,-0.5654122829437256,0.2966242233076236,-0.9382106561490042,0.5928401214461335,97
23:43:31,0.023028820753097534,-0.07483667135238647,0.08756446838378906,-1.1950805187225342,-0.5712047815322876,-0.5179147124290466,0.15603254735469818,0.8310747146606445,-0.5338245630264282,0.2843701522913109,-0.9810372645767967,0.5659893939971813,97
23:43:31,-0.02310238778591156,0.12337148189544678,-0.08575862646102905,-1.1795293092727661,-0.058823488652706146,-0.14858436584472656,0.10926840454339981,0.9028401374816895,-0.41586074233055115,0.2569444355561062,-1.1263296790714383,0.5705654960425107,97
23:43:31,-0.006915681064128876,-0.006543397903442383,0.03629988431930542,-1.0961949825286865,0.034089673310518265,-0.04878852516412735,0.10525825619697571,0.9442846179008484,-0.31184515357017517,0.3255261300106669,-1.2354142783617208,0.6370025028479733,97
23:43:32,-0.03704372048377991,0.11217617988586426,-0.025969326496124268,-0.6561156511306763,0.0005618082359433174,0.0011329608969390392,0.09659840911626816,0.9704161286354065,-0.22127166390419006,0.41162137645007146,-1.3269484188297676,0.7283807187868241,97
23:43:32,-0.0033508911728858948,-0.008221805095672607,0.022321701049804688,-0.10716171562671661,0.0028001954779028893,-0.10518069565296173,0.10161709040403366,0.980782687664032,-0.16655108332633972,0.5478315955798414,-1.3744334470305053,0.8630601383138176,97
23:43:32,-0.04339578002691269,0.11774551868438721,-0.05776423215866089,-0.17461425065994263,-0.15426398813724518,0.044854339212179184,0.09229983389377594,0.9842862486839294,-0.15053679049015045,0.5500238451496214,-1.3932853131198186,0.8728940307536787,97
23:43:32,0.01931816339492798,0.015307903289794922,0.036086857318878174,-0.24034054577350616,-0.011561432853341103,0.3842129707336426,0.1148671805858612,0.9850390553474426,-0.12846705317497253,0.7295665665019623,-1.3976004732232217,1.062461604381084,97
23:43:32,0.012506961822509766,0.046039879322052,-0.019456148147583008,0.10316968709230423,0.0079459547996521,0.3478669226169586,0.14606180787086487,0.9819410443305969,-0.12024138122797012,0.8820547669155224,-1.3804618678580163,1.2223772372693187,97
23:43:32,-0.0006797760725021362,-0.007542312145233154,-0.008079469203948975,-0.014034433290362358,0.020321130752563477,0.32426440715789795,0.17987816035747528,0.9767152070999146,-0.11692450940608978,0.9944066453095634,-1.354575424494067,1.3337881288854532,97
23:43:32,-0.0024222880601882935,0.04380238056182861,0.006782591342926025,-0.04820465296506882,0.002389536239206791,0.14265626668930054,0.19614700973033905,0.9738325476646423,-0.11478809267282486,1.0413194227494469,-1.3415263931518977,1.3811447417682579,97
23:43:32,0.011957526206970215,0.05353498458862305,0.0010343194007873535,0.028722884133458138,0.025063954293727875,0.4197331368923187,0.22252319753170013,0.9690433740615845,-0.10694991797208786,1.1227695783747453,-1.321326235706894,1.463451252662951,97
23:43:32,0.0057794153690338135,0.010045945644378662,0.011962354183197021,-0.03257722407579422,0.049132008105516434,0.5969734191894531,0.27492010593414307,0.9552514553070068,-0.10914944857358932,1.1928594497120475,-1.2705087730152305,1.534331077658997,97
23:43:32,0.016775846481323242,-0.027560710906982422,0.06476831436157227,-0.19652700424194336,-0.0033391909673810005,0.5777504444122314,0.3338389992713928,0.9369189739227295,-0.10360623896121979,1.2698732762089506,-1.213709235951532,1.6115512883066119,97
23:43:33,-0.013084501028060913,0.025386452674865723,0.005679488182067871,-0.05893613398075104,-0.21634441614151,0.5133294463157654,0.38518351316452026,0.9174955487251282,-0.0991743952035904,1.318796601552821,-1.1617373815197445,1.6774055004518398,97
23:43:33,-0.03325355052947998,0.08160817623138428,-0.040485501289367676,0.000692049041390419,-0.27126333117485046,0.3576394021511078,0.42573803663253784,0.9001530408859253,-0.09204162657260895,1.3578800610715958,-1.120120784063171,1.7470627250550712,97
23:43:33,-0.03535321354866028,-0.029957950115203857,0.012109458446502686,-0.15231932699680328,-0.2942493259906769,0.2624271512031555,0.4497644305229187,0.888123095035553,-0.09460294991731644,1.3634795718204946,-1.0932452112318063,1.7838695598551346,97
23:43:33,-0.01244249939918518,-0.031302034854888916,0.0044474005699157715,-0.4076896011829376,-0.29049426317214966,0.30709022283554077,0.47299596667289734,0.8777328133583069,-0.07655019313097,1.410346429805346,-1.0711097990307306,1.8705200624434455,97
23:43:33,-0.011916428804397583,-0.017819643020629883,0.057011187076568604,-0.5115944147109985,-0.08448703587055206,0.24417677521705627,0.49695998430252075,0.8659896850585938,-0.05561283975839615,1.459353907109238,-1.047126176491423,1.9498362677977565,97
23:43:33,-0.05159103870391846,-0.020389914512634277,-0.03581720590591431,0.05753695219755173,0.08080977201461792,0.03893652930855751,0.508803129196167,0.8595126271247864,-0.04855293780565262,1.4756586155448101,-1.0343153503712323,1.9700594797596611,97
23:43:33,-0.004857122898101807,-0.02390819787979126,0.025759577751159668,0.07476893812417984,0.06266885250806808,-0.05452950298786163,0.5063811540603638,0.8604682087898254,-0.056326381862163544,1.4600185345855508,-1.0361878667744948,1.9491626359739724,97
23:43:33,-0.028750896453857422,0.01921004056930542,-0.0071256160736083984,0.09474317729473114,0.1974775344133377,-0.05573218688368797,0.5014971494674683,0.8629894256591797,-0.0612366758286953,1.449290119410449,-1.041157168230363,1.927889938197613,97
23:43:33,-0.017666399478912354,-0.04824954271316528,0.015941321849822998,0.013468031771481037,0.1742558479309082,-0.11731325834989548,0.49575275182724,0.8662087321281433,-0.06254541873931885,1.445296860466316,-1.0475643072803398,1.9066926320634603,97
23:43:33,-0.03139033913612366,-0.026135385036468506,0.022259652614593506,-0.13963602483272552,0.3266099691390991,-0.2592421770095825,0.4787757396697998,0.876793384552002,-0.04480148106813431,1.4774929362834084,-1.0691527671414638,1.912448850630263,97
23:43:34,-0.023368030786514282,-0.009724080562591553,0.05479234457015991,-0.060189150273799896,0.34029248356819153,-0.32846570014953613,0.4545333981513977,0.8905180096626282,-0.01942731998860836,1.5280810876255226,-1.0984824903223067,1.9291312750623777,97
23:43:34,0.002924323081970215,-0.06478315591812134,0.04279744625091553,0.12197905778884888,0.2399323284626007,-0.49840041995048523,0.419589102268219,0.9074140191078186,-0.023332951590418816,1.5152444919103756,-1.137088922307485,1.8862706975877546,97
23:43:34,0.02043771743774414,-0.19170480966567993,0.08155065774917603,-0.3545781672000885,0.022580556571483612,-0.6982722878456116,0.3677133619785309,0.9288975596427917,-0.04400404542684555,1.4516932952170978,-1.1914248307439343,1.7984823832890322,97
23:43:34,0.013294368982315063,0.05421948432922363,0.006340682506561279,-0.3445141017436981,0.10398087650537491,-0.35982656478881836,0.3105107545852661,0.950078547000885,-0.030561547726392746,1.4726888277573404,-1.2534874639212157,1.816470906994297,97
23:43:34,0.07552817463874817,-0.0010753273963928223,0.04575890302658081,-0.0010126400738954544,0.030127691105008125,-0.32926732301712036,0.28932297229766846,0.9567885994911194,-0.029117342084646225,1.470494473278243,-1.275749801226916,1.7997298191684692,97
23:43:34,0.014588207006454468,0.03616225719451904,-0.036617279052734375,0.0447431281208992,-0.130610853433609,-0.2172563672065735,0.26446306705474854,0.963374674320221,-0.04436635971069336,1.4045839260410353,-1.2993148825753749,1.7429458045640644,97
23:43:34,-0.022268295288085938,0.07056838274002075,-0.03890436887741089,0.15422675013542175,0.011330832727253437,-0.13887473940849304,0.24742557108402252,0.9662302136421204,-0.0719713643193245,1.287726559822544,-1.3101756588392492,1.626633278967177,97
23:43:34,-0.021630272269248962,0.032158851623535156,-0.006035566329956055,0.4810386896133423,0.0380343496799469,-0.031088093295693398,0.24205729365348816,0.9630289077758789,-0.1182524636387825,1.1163660327504232,-1.298028293459463,1.4442748164979133,97
23:43:34,0.01733541488647461,-0.053549230098724365,0.07173585891723633,0.18681025505065918,-0.0022869743406772614,-0.10886384546756744,0.2327394336462021,0.9522860050201416,-0.19744274020195007,0.8672653206887645,-1.2606404195603993,1.181769230790531,97
23:43:34,-0.020918145775794983,0.0540732741355896,0.0024222731590270996,0.12004879862070084,-0.06851579248905182,0.011759505607187748,0.22626949846744537,0.9502238035202026,-0.21418869495391846,0.8128191075590624,-1.2539533520457733,1.1272361657966485,97
23:43:35,0.006607323884963989,0.009538829326629639,0.010984659194946289,0.19838330149650574,-0.0945199653506279,0.09471617639064789,0.23135192692279816,0.9439002871513367,-0.23564499616622925,0.7762054833594026,-1.2342484653264412,1.1004119752038135,97
23:43:35,-0.009254783391952515,-0.016009926795959473,0.003156125545501709,0.10904248803853989,-0.21068118512630463,-0.01738612912595272,0.2312076836824417,0.9405951499938965,-0.24864420294761658,0.7490768610505786,-1.2243788550720085,1.0895763143826636,97
23:43:35,0.004621908068656921,0.017336606979370117,0.03193521499633789,0.5166717767715454,-0.2228262722492218,-0.17534247040748596,0.21627813577651978,0.9371249079704285,-0.273898720741272,0.6683845416603438,-1.214298792849273,1.027934476192552,97
23:43:35,0.0403459370136261,0.06519341468811035,0.02690911293029785,1.1621328592300415,-0.09688059240579605,-0.23972998559474945,0.19610309600830078,0.927675187587738,-0.3177456557750702,0.552948931073243,-1.188137627226297,0.9082204177978249,97
23:43:35,-0.001844361424446106,0.02802896499633789,-0.04370748996734619,0.6718810796737671,0.07216249406337738,-0.18998000025749207,0.17489326000213623,0.914699375629425,-0.36433157324790955,0.44755142718022956,-1.1547633641810897,0.79534013891843,97
23:43:35,-0.024079889059066772,0.02772301435470581,0.0033406615257263184,0.2127382606267929,0.133718803524971,-0.09797577559947968,0.16323907673358917,0.8978087306022644,-0.4090142846107483,0.37973339047683924,-1.1147682272923585,0.7011341620504739,97
23:43:35,-0.02881908416748047,0.0046353936195373535,-0.0164756178855896,0.3101039528846741,0.16979771852493286,0.20819666981697083,0.17917795479297638,0.8843202590942383,-0.43112969398498535,0.393882790783266,-1.0850360911807564,0.6996393246268477,97
23:43:35,0.002201586961746216,0.0038983821868896484,0.024576246738433838,0.00996730662882328,0.1650860458612442,0.21301965415477753,0.2015017420053482,0.8737501502037048,-0.4426712393760681,0.4271657220804213,-1.0628601358552108,0.7199834647139163,97
23:43:35,0.0005222409963607788,0.005791723728179932,0.020927250385284424,-0.018990574404597282,-0.10343089699745178,0.30493733286857605,0.22529074549674988,0.8699336051940918,-0.43870213627815247,0.4744202270231816,-1.0550677116578455,0.7706956668253643,97
23:43:35,-0.021243616938591003,-0.05393415689468384,-0.006209731101989746,0.18876659870147705,-0.464447945356369,0.013709738850593567,0.23118743300437927,0.8660609126091003,-0.4432729482650757,0.480735804356377,-1.047268588988162,0.8105169459118491,97
23:43:36,-3.454089164733887e-05,-0.1755235195159912,-0.011095166206359863,0.3777546286582947,-0.22235728800296783,-0.48695868253707886,0.19148483872413635,0.8481994867324829,-0.49385327100753784,0.36988972906820755,-1.0125767518364657,0.7209955504414818,97
23:43:36,-0.041720807552337646,0.05374431610107422,-0.06282711029052734,0.18804197013378143,0.2683604955673218,-0.06143534556031227,0.1729753464460373,0.8351641297340393,-0.522092342376709,0.3199300699068834,-0.9884311553131659,0.6485449070800807,97
23:43:36,-0.011696398258209229,-0.009282588958740234,0.008612871170043945,0.22296826541423798,0.4724307954311371,0.1873321384191513,0.20059838891029358,0.822614312171936,-0.5320393443107605,0.36055511697978976,-0.9659936552745912,0.6526763929833871,97
23:43:36,0.0027993470430374146,-0.07651937007904053,0.050425946712493896,0.15516045689582825,0.23879140615463257,0.09450764954090118,0.2326417714357376,0.8099566698074341,-0.5383754372596741,0.40788425352416063,-0.9440782463245557,0.669131936506419,97
23:43:36,0.024450629949569702,-0.014801502227783203,0.03612399101257324,-0.026094289496541023,-0.13927970826625824,-0.14684824645519257,0.23116262257099152,0.808571994304657,-0.5410870313644409,0.40374858966372834,-0.9417211595416362,0.6577024826419665,97
23:43:36,-0.015483781695365906,0.012681901454925537,-0.04549098014831543,-0.034123457968235016,-0.3817916810512543,-0.14073708653450012,0.20531651377677917,0.8160613179206848,-0.5402676463127136,0.36317096894767154,-0.954563149371511,0.6410375017361409,97
23:43:36,-0.029111921787261963,0.016451001167297363,-0.06316179037094116,0.05826292932033539,-0.3782171905040741,-0.09026779234409332,0.17440453171730042,0.8196622133255005,-0.5456527471542358,0.3093632163635561,-0.9608211568326004,0.6203687682479471,97
23:43:36,-0.012643694877624512,0.011681914329528809,-0.008425235748291016,-0.13037514686584473,-0.09548615664243698,0.134754940867424,0.1643146425485611,0.8281242251396179,-0.5359207391738892,0.29750307587869146,-0.9757530582890563,0.635275187117173,97
23:43:36,-0.014702051877975464,-0.0177534818649292,-0.01236569881439209,-0.20777033269405365,0.15680627524852753,0.10613447427749634,0.17511628568172455,0.8388984203338623,-0.5153482556343079,0.3275608792941101,-0.9952562032626172,0.6663586760379318,97
23:43:36,0.002189069986343384,-0.03624749183654785,0.04822152853012085,-0.21418483555316925,0.004971470683813095,0.10102333873510361,0.1900700330734253,0.846390426158905,-0.4974903464317322,0.36494388015066337,-1.009170570415008,0.6971151969091811,97
23:43:37,0.008606135845184326,-0.06776273250579834,-0.0007928013801574707,0.051935531198978424,-0.16521038115024567,-0.03972179442644119,0.19029054045677185,0.8579317331314087,-0.47722378373146057,0.37942390401543663,-1.0312303747570335,0.7291308244527255,97
23:43:37,-0.03870859742164612,0.08441239595413208,-0.039907097816467285,0.32520806789398193,0.025078870356082916,-0.2714138627052307,0.1670488864183426,0.8523328304290771,-0.4956042766571045,0.3251017219505499,-1.0204296369753119,0.6784292129606357,97
23:43:37,-0.02902965247631073,0.0671510100364685,-0.05288022756576538,0.24341386556625366,0.35123753547668457,0.10498666018247604,0.17195720970630646,0.8369249105453491,-0.5196031928062439,0.31959452457768217,-0.9916403584625193,0.6476074292589691,97
23:43:37,-0.022616058588027954,-0.01649940013885498,0.002154707908630371,0.31082671880722046,0.38082340359687805,0.11218171566724777,0.2017829716205597,0.8200657963752747,-0.5355144739151001,0.36034964753630244,-0.9615259467871746,0.6497278970547202,97
23:43:37,0.0003612041473388672,-0.021235406398773193,0.035106539726257324,0.08409479260444641,0.27918943762779236,0.10247822850942612,0.2272368222475052,0.8110535144805908,-0.5390322208404541,0.3989571192151516,-0.9459508103730364,0.6586812538591598,97
23:43:37,0.03651471436023712,-0.026653826236724854,0.03555881977081299,0.12314446270465851,-0.041601356118917465,-0.03152325376868248,0.2358524352312088,0.8057599067687988,-0.5432536005973816,0.40959343676057897,-0.9369574812427738,0.6537752935942487,97
23:43:37,-0.018628373742103577,-0.012693047523498535,-0.035502493381500244,0.35354915261268616,-0.3024659752845764,-0.08590260148048401,0.22248372435569763,0.7886409163475037,-0.5731897950172424,0.3702494492264809,-0.9085954490494546,0.6247835767658486,97
23:43:37,-0.028657987713813782,0.02968418598175049,-0.059921324253082275,-0.02523595653474331,-0.20224162936210632,0.1260530650615692,0.19784554839134216,0.7860126495361328,-0.5856972336769104,0.32576057438452527,-0.9043324298378045,0.618697432311085,97
23:43:37,-0.038017019629478455,-0.020772218704223633,-0.046282410621643066,0.11181963235139847,0.3577151298522949,0.06317129731178284,0.21056152880191803,0.7883892059326172,-0.578019380569458,0.3493403133887865,-0.9081861503198682,0.6363066306732774,97
23:43:37,0.020572364330291748,-0.03949457406997681,0.041372597217559814,0.18981324136257172,0.4887048602104187,0.11494767665863037,0.2422887682914734,0.7765791416168213,-0.5815677642822266,0.3947455222741406,-0.889217711782537,0.636419727593156,97
23:43:38,0.04365801811218262,-0.09928148984909058,0.11788606643676758,-0.1284795105457306,-0.06589311361312866,-0.08395929634571075,0.25162798166275024,0.7749036550521851,-0.5798341631889343,0.4094398731551875,-0.886562630015774,0.633160097591418,97
23:43:38,0.009446129202842712,-0.058176517486572266,0.040354013442993164,-0.14841674268245697,-0.43682244420051575,-0.12145847082138062,0.22636130452156067,0.785403847694397,-0.5761088728904724,0.37438299267682473,-0.9033482729726303,0.625645008257139,97
23:43:38,0.005526930093765259,-0.06782025098800659,0.0386924147605896,-0.7306921482086182,-0.5858100652694702,-0.2874663472175598,0.18589292466640472,0.810107409954071,-0.5560303330421448,0.3226396862463329,-0.9443352598563621,0.6152511886009521,97
23:43:38,-0.023967161774635315,0.06133776903152466,-0.07420414686203003,-1.6116729974746704,-0.05344390124082565,-0.2459985315799713,0.1406346708536148,0.868586540222168,-0.47516241669654846,0.28775710172977187,-1.0523428150498801,0.6169602545211693,97
23:43:38,-0.014132700860500336,0.049285829067230225,-0.04363352060317993,-1.3357561826705933,0.039326246827840805,-0.16876526176929474,0.12372022867202759,0.924201488494873,-0.3613099157810211,0.32990734096709473,-1.1789393468773466,0.6622254849796168,97
23:43:38,-0.013893283903598785,0.07409119606018066,-0.03159451484680176,-0.5129105448722839,0.15148553252220154,-0.13598041236400604,0.11331857740879059,0.9543884992599487,-0.2762273848056793,0.38929972247408695,-1.2676049731149501,0.7089090634311218,97
23:43:38,-0.02410198748111725,0.10280728340148926,-0.03594040870666504,-0.40048733353614807,-0.2003806233406067,-0.007980376482009888,0.10488107800483704,0.9695565700531006,-0.22126860916614532,0.44263123125929693,-1.323413480244455,0.771054798680054,97
23:43:38,0.021037928760051727,-0.04338812828063965,0.03463304042816162,-0.42194870114326477,-0.058569956570863724,0.05770489200949669,0.10330502688884735,0.9787430763244629,-0.17717278003692627,0.5278816879683719,-1.3642405981494306,0.8679045900731381,97
23:43:38,-0.05647915601730347,0.10227316617965698,-0.02086728811264038,-0.1819683015346527,-0.06241129711270332,0.06151880323886871,0.1138816624879837,0.9839146137237549,-0.13763374090194702,0.6912415093726493,-1.3911927426793407,1.050203195369436,97
23:43:38,0.02292792499065399,0.040624260902404785,-0.01034235954284668,-0.08160575479269028,0.03893423080444336,0.25813600420951843,0.12285341322422028,0.9843757748603821,-0.12614034116268158,0.7721980575897889,-1.3937928838744085,1.1337817057075643,97
23:43:39,-0.022603660821914673,0.03756922483444214,9.256601333618164e-05,0.034300342202186584,0.03774193301796913,0.20318005979061127,0.14371129870414734,0.9819676876068115,-0.12282758951187134,0.8635898616421513,-1.3806028571577522,1.2246447639372986,97
23:43:39,-0.01829308271408081,0.032328903675079346,0.01475977897644043,-0.03698661923408508,0.07543179392814636,0.31039413809776306,0.17025360465049744,0.9778844714164734,-0.12147354334592819,0.9510766696273548,-1.3600949047928745,1.312109425959472,97
23:43:39,0.002825140953063965,0.001996636390686035,0.034222543239593506,0.08850685507059097,0.027837637811899185,0.1762709617614746,0.19567438960075378,0.9738996028900146,-0.11502708494663239,1.0393589475361098,-1.3418215650592897,1.394598018331815,97
23:43:39,-0.01123356819152832,0.07772284746170044,-0.013514161109924316,0.01586966961622238,0.05349266529083252,0.20589008927345276,0.2109537124633789,0.9708511829376221,-0.11378368735313416,1.0761451364141104,-1.3287569306800995,1.429945951256295,97
23:43:39,-0.0015378743410110474,0.03441786766052246,-0.005605518817901611,0.02349829487502575,0.08275095373392105,0.36706382036209106,0.23911477625370026,0.9642142057418823,-0.11452073603868484,1.1241412709851626,-1.3024633420938687,1.4752145776617889,97
23:43:39,0.03476130962371826,0.03920722007751465,-0.0018249154090881348,0.03846552595496178,-0.00830172374844551,0.5004996061325073,0.28094014525413513,0.952665388584137,-0.11619560420513153,1.1786248373391244,-1.2618859236180762,1.5246681795149803,97
23:43:39,0.016895592212677002,0.035771965980529785,0.0161055326461792,-0.08978991955518723,-0.18557025492191315,0.44960904121398926,0.3266527056694031,0.9389041066169739,-0.10843032598495483,1.2502968939763839,-1.2194323352210716,1.6168461362880457,97
23:43:39,-0.01538434624671936,-0.018824100494384766,0.0540081262588501,0.06194901466369629,-0.2740361988544464,0.4384929835796356,0.37004074454307556,0.9228371977806091,-0.10696487128734589,1.2894039795589474,-1.1753823828069365,1.6858445534660293,97
23:43:39,-0.03378254175186157,0.026448965072631836,0.00019699335098266602,-0.10874735563993454,-0.2383602261543274,0.38994142413139343,0.40407896041870117,0.9076854586601257,-0.11325780302286148,1.2975221357313529,-1.1377353214620343,1.7247025644227352,97
23:43:39,-0.031130433082580566,-0.005215764045715332,0.09491950273513794,-0.5470319986343384,-0.3409731388092041,0.44880232214927673,0.44045865535736084,0.8924756050109863,-0.0973844975233078,1.353199010249837,-1.1028036421773368,1.8178080680130275,97
23:43:40,0.0329362154006958,0.06127506494522095,0.03334552049636841,-0.33643272519111633,-0.2770969569683075,0.2924228608608246,0.46908894181251526,0.8787194490432739,-0.0883617028594017,1.3846092662835752,-1.0731728363611952,1.8856952497739243,97
23:43:40,-0.03834742307662964,-0.03437727689743042,-0.0730329155921936,-0.028402721509337425,-0.021917399019002914,0.038245707750320435,0.4847235381603241,0.871740996837616,-0.07149166613817215,1.4243624726898239,-1.0587444013075877,1.9491098613882312,97
23:43:40,-0.024295002222061157,-0.009671151638031006,0.03183215856552124,-0.010927855968475342,0.10186100006103516,-0.051351819187402725,0.48211488127708435,0.873126745223999,-0.0722162202000618,1.422111288945814,-1.061579871509836,1.9409668876049568,97
23:43:40,-0.018064767122268677,0.011434555053710938,-0.023374319076538086,0.015698961913585663,0.1495606154203415,-0.020735586062073708,0.47916609048843384,0.8752310872077942,-0.0661110207438469,1.4336909438818337,-1.0659134017046643,1.9393747420334746,97
23:43:40,-0.029339849948883057,0.008057057857513428,-0.002328634262084961,0.08280982077121735,0.24634148180484772,-0.0733007937669754,0.4764948785305023,0.8770220875740051,-0.0615215003490448,1.4423940554732333,-1.0696285739226865,1.924634224618746,97
23:43:40,-0.019640803337097168,-0.0002168416976928711,0.05696570873260498,-0.035366617143154144,0.362905353307724,-0.09468837827444077,0.4701835811138153,0.8811460137367249,-0.050091035664081573,1.464661592149315,-1.078280355707646,1.916924706623215,97
23:43:40,-0.0347040593624115,-0.03797948360443115,0.01796966791152954,-0.06619138270616531,0.30311742424964905,-0.1750500500202179,0.4584525227546692,0.8880858421325684,-0.0335407629609108,1.4977656201373606,-1.093164172391774,1.9201040680746768,97
23:43:40,-0.030720889568328857,0.021882176399230957,0.06853306293487549,1.2296063899993896,0.30033016204833984,-0.4358081519603729,0.43306154012680054,0.899147093296051,-0.06318391114473343,1.425918032007115,-1.1178168074424006,1.8052035415981185,97
23:43:40,0.005948096513748169,0.004681944847106934,0.016800880432128906,0.04087541997432709,0.0573049820959568,-0.42602238059043884,0.39324960112571716,0.9122886657714844,-0.11438700556755066,1.28773075097103,-1.148837950074429,1.638804833154636,97
23:43:40,0.008355498313903809,0.07864022254943848,-0.05453312397003174,0.7252998352050781,0.1741064339876175,-0.30904728174209595,0.3589668571949005,0.9238405823707581,-0.1328965574502945,1.2162232777388513,-1.1779955089440446,1.5503799111815944,97
23:43:41,0.005624532699584961,0.08491659164428711,0.008617222309112549,0.037080951035022736,0.018928032368421555,-0.2544918656349182,0.33031076192855835,0.933006227016449,-0.14280876517295837,1.1627194434885595,-1.2026783178524707,1.486751465498653,97
23:43:41,0.002787470817565918,0.02537822723388672,-0.009496331214904785,0.02259521745145321,-0.03403371945023537,-0.10728698968887329,0.31018346548080444,0.9415954947471619,-0.1310887485742569,1.170945983646276,-1.2273372479360687,1.49888813683797,97
23:43:41,-0.0350361168384552,-0.006362855434417725,-0.004781544208526611,-0.176640123128891,0.05566447228193283,-0.20602688193321228,0.2928619086742401,0.9491817951202393,-0.11526521295309067,1.195834820291285,-1.2506259895776624,1.525977903619127,97
23:43:41,0.013329952955245972,0.04115116596221924,-0.049558043479919434,-0.10822751373052597,-0.207533597946167,-0.3262912333011627,0.2691693902015686,0.9581249952316284,-0.09769552946090698,1.2226300216917376,-1.2803809024195507,1.5538057510638519,97
23:43:41,-0.04606488347053528,-0.06489419937133789,0.028265833854675293,-0.03967694938182831,0.024218935519456863,-0.3643054664134979,0.24017031490802765,0.9657971262931824,-0.09774516522884369,1.1842848997164868,-1.308500063216328,1.5210549518721348,97
23:43:41,-0.01745167374610901,0.04890322685241699,-0.007912933826446533,-0.025096669793128967,0.13646531105041504,-0.07645078003406525,0.2166079580783844,0.9707131385803223,-0.10390939563512802,1.1235106017631256,-1.3281817049226716,1.4518566007771012,97
23:43:41,0.0017355084419250488,-0.03070753812789917,0.038324952125549316,0.0016747545450925827,0.024694574996829033,-0.0013637527590617537,0.21635693311691284,0.9708256125450134,-0.10337911546230316,1.1250517252912018,-1.3286503407683374,1.4474584982988696,97
23:43:41,-0.020846113562583923,0.05034995079040527,0.0031471848487854004,0.06768599152565002,0.020615944638848305,0.08794961869716644,0.217484712600708,0.9702126979827881,-0.10671434551477432,1.114636386351755,-1.3261071483711044,1.4379431781238758,97
23:43:41,-0.03014594316482544,0.06190478801727295,-0.0032333731651306152,0.5167327523231506,0.08272059261798859,0.21857553720474243,0.23340670764446259,0.9631894826889038,-0.13336913287639618,1.0516700056849893,-1.29862503324046,1.365727947643031,97
23:43:41,-0.022939026355743408,0.09341013431549072,-0.003338932991027832,0.7519234418869019,0.2072574645280838,0.321725070476532,0.2594943046569824,0.9480721354484558,-0.1839071661233902,0.9542461372394898,-1.247118764320987,1.2487371150785513,97
23:43:42,-0.0023039281368255615,-0.1425713300704956,0.11419141292572021,0.298978328704834,0.0851195678114891,0.28608664870262146,0.2931192219257355,0.9165672659873962,-0.2720026969909668,0.8227470740442541,-1.1594098494550333,1.0834266191146018,97
23:43:42,0.009639650583267212,-0.11538654565811157,0.024431824684143066,0.19801098108291626,-0.14210772514343262,-0.06184520572423935,0.3051471710205078,0.9040312170982361,-0.2993539869785309,0.7949812838407241,-1.1291079096614858,1.055369904445777,97
23:43:42,0.0077897608280181885,0.0443730354309082,-0.07185113430023193,0.11373710632324219,-0.17619431018829346,-0.08123647421598434,0.287587970495224,0.8980343341827393,-0.33290791511535645,0.7124893724718139,-1.1152807651382135,0.9899597745294615,97
23:43:42,-0.054860919713974,-0.04039788246154785,-0.0024285316467285156,0.4083583354949951,-0.15157181024551392,-0.20931801199913025,0.27692022919654846,0.8875446915626526,-0.36821162700653076,0.6448234125576099,-1.091988233759573,0.9330776043256245,97
23:43:42,-0.011662080883979797,0.07354015111923218,-0.07259577512741089,0.44493046402931213,-0.28866758942604065,-0.30883076786994934,0.2476985901594162,0.8764050006866455,-0.41298869252204895,0.5402510171200742,-1.068345645083725,0.8346056774425249,97
23:43:42,-0.03882567584514618,0.0707554817199707,-0.043817758560180664,0.43530288338661194,-0.6353834867477417,-0.296451598405838,0.2102261483669281,0.8595972061157227,-0.46572279930114746,0.42401554550693404,-1.0344808489668684,0.7510415702430339,97
23:43:42,-0.008471071720123291,0.06690740585327148,-0.08070778846740723,0.1532520353794098,-0.006518205627799034,0.18171925842761993,0.19006456434726715,0.8592033386230469,-0.475021094083786,0.38060823513704434,-1.033710502299271,0.748317189801758,97
23:43:42,-0.019935235381126404,0.041819632053375244,-0.002592325210571289,0.031011071056127548,0.1772950291633606,0.28805530071258545,0.21515460312366486,0.8575575947761536,-0.4672297239303589,0.43154305900473194,-1.0305025582328244,0.795121583001007,97
23:43:42,-0.006127834320068359,-0.0457494854927063,0.018520832061767578,0.42752858996391296,0.23962019383907318,0.23377418518066406,0.25258591771125793,0.8388798236846924,-0.4821629822254181,0.482552927261782,-0.9952219840588078,0.8306956342874899,97
23:43:42,-0.02426469326019287,-0.031415462493896484,0.027392089366912842,0.30312594771385193,0.30274271965026855,-0.04831847921013832,0.2741864025592804,0.8245612382888794,-0.4948945939540863,0.5059319081691162,-0.9694262108387227,0.8178660321624363,97
23:43:43,-0.012911885976791382,-0.007298290729522705,0.021424412727355957,0.34711071848869324,0.04640359804034233,-0.004957422148436308,0.27964869141578674,0.8152298927307129,-0.5071458220481873,0.5039302531328721,-0.9531260658179063,0.798240742134558,97
23:43:43,-0.027950286865234375,-0.04159736633300781,0.026218414306640625,0.31093165278434753,0.05197333171963692,-0.29889053106307983,0.2761783003807068,0.8059501051902771,-0.5236124992370605,0.48536399807965463,-0.9372786908607948,0.7695254576713283,97
23:43:43,-0.031391650438308716,0.01428079605102539,-0.03165137767791748,-0.03600125014781952,-0.09041497111320496,-0.043468061834573746,0.25993600487709045,0.8031880855560303,-0.5360245108604431,0.4515215346460622,-0.9326276375506086,0.7373035384294772,97
23:43:43,-0.002182096242904663,0.058566272258758545,-0.0444188117980957,0.10030252486467361,-0.2975330054759979,-0.018239937722682953,0.24078212678432465,0.7923651337623596,-0.5605189204216003,0.405735125583442,-0.9146763076928099,0.7125647034807432,97
23:43:43,-0.03130924701690674,0.01266324520111084,-0.04564720392227173,0.06717333942651749,-0.1678226739168167,0.006203086581081152,0.22442303597927094,0.7858393788337708,-0.5762732625007629,0.3713686680866125,-0.9040522545305845,0.696762364551087,97
23:43:43,-0.018799275159835815,0.019207298755645752,-0.035683512687683105,-0.031411826610565186,-0.30377811193466187,0.024644145742058754,0.2050161510705948,0.785169780254364,-0.5843601226806641,0.337421803805445,-0.9029702558455087,0.6882944486660392,97
23:43:43,-0.0463271290063858,0.013767480850219727,-0.0682908296585083,-0.24139593541622162,0.04303203895688057,0.12930716574192047,0.20468147099018097,0.7945463061332703,-0.5716656446456909,0.3438229445881031,-0.9182600059511444,0.7112562928170603,97
23:43:43,-0.017837807536125183,0.0240938663482666,-0.016363978385925293,-0.3451481759548187,0.21052728593349457,0.3044763207435608,0.23155075311660767,0.8070465922355652,-0.5431942939758301,0.4029510213314153,-0.9391332759105118,0.7616445897457489,97
23:43:43,0.009348064661026001,-0.028151333332061768,0.05838751792907715,-0.10502905398607254,-0.1640803962945938,0.06018615886569023,0.25320813059806824,0.8232198357582092,-0.5081286430358887,0.4622987086601749,-0.9670594394693499,0.8319062497850109,97
23:43:43,-0.02265182137489319,-0.020229995250701904,-0.05629020929336548,0.0897982195019722,-0.22451817989349365,-0.38422033190727234,0.22369998693466187,0.828848123550415,-0.512805163860321,0.41134231169403324,-0.9770456592348752,0.805247223526537,97
23:43:44,-0.04817113280296326,0.17409342527389526,-0.10550087690353394,0.1566813886165619,0.3003501296043396,0.0018671941943466663,0.20371778309345245,0.8232913613319397,-0.529802143573761,0.3670878665699929,-0.9671854523897497,0.7426730203315199,97
23:43:44,-0.026532530784606934,-0.003198683261871338,0.019077420234680176,-0.03374315798282623,0.4492282569408417,0.23536783456802368,0.23839923739433289,0.8160289525985718,-0.5265573263168335,0.4251391367203566,-0.9545071573839198,0.7632270966112854,97
23:43:44,0.03978767991065979,-0.11004352569580078,0.11085343360900879,-0.4800862967967987,-0.32808905839920044,0.13878083229064941,0.2602289617061615,0.8290018439292908,-0.49501195549964905,0.4839974508575671,-0.9773205044424264,0.8237523570196106,97
23:43:44,-0.009277790784835815,-0.07033514976501465,-0.01861417293548584,0.312050461769104,-0.43078187108039856,-0.2927095592021942,0.23149004578590393,0.8444539308547974,-0.4830218255519867,0.4469133405078109,-1.0055448976381458,0.8389318532016128,97
23:43:44,-0.06557321548461914,0.12245357036590576,-0.08371603488922119,0.3534168004989624,0.20881780982017517,-0.33020955324172974,0.19127383828163147,0.8458024859428406,-0.4980286955833435,0.3666915873729851,-1.0080675472825726,0.7588823341168427,97
23:43:44,-0.04633161425590515,-0.0021619200706481934,-0.03264498710632324,0.10820013284683228,0.5438107252120972,0.0009382837451994419,0.1999557614326477,0.8370714783668518,-0.5092436671257019,0.3741562711536263,-0.9919082708490815,0.7234277338085869,97
23:43:44,0.007200002670288086,-0.03974848985671997,0.041305482387542725,0.09135723859071732,0.4197790324687958,0.2176184058189392,0.2333836704492569,0.8294458985328674,-0.5074955821037292,0.43103417584716536,-0.9781149911941154,0.739261092400213,97
23:43:44,0.021359682083129883,-0.08229494094848633,0.11296713352203369,-0.14586623013019562,0.051426053047180176,0.1278243362903595,0.2590034604072571,0.8247511982917786,-0.5026954412460327,0.47575678100711216,-0.9697620916371212,0.7628948390320284,97
23:43:44,0.027840912342071533,-0.13548022508621216,0.10497117042541504,-0.15753832459449768,-0.5100308656692505,-0.2673807740211487,0.23505115509033203,0.8260567784309387,-0.5122316479682922,0.4302112077992255,-0.9720747475624183,0.7365365275736558,97
23:43:44,-0.04928100109100342,0.04048711061477661,-0.10122472047805786,-0.03697090595960617,-0.6810580492019653,0.00402755057439208,0.18917222321033478,0.8343544006347656,-0.5177515149116516,0.3503036220059567,-0.9869605351438668,0.7129725886345192,97
23:43:45,-0.05699478089809418,0.030109167098999023,-0.08037269115447998,0.04660814255475998,0.29998740553855896,0.15970370173454285,0.1908130645751953,0.8372861742973328,-0.5123888254165649,0.35648836039243964,-0.9923007452696271,0.740468509666127,97
23:43:45,0.016154035925865173,-0.011518657207489014,0.0815201997756958,-0.35321277379989624,0.13689622282981873,0.34011900424957275,0.23076216876506805,0.8426592946052551,-0.486491858959198,0.4429090574700164,-1.0022031467029648,0.7994554158100969,97
23:43:45,0.02090933918952942,-0.15072518587112427,0.05612063407897949,-0.08936647325754166,-0.4407269060611725,-0.05636122450232506,0.23609280586242676,0.8530507683753967,-0.46536505222320557,0.4694929563201682,-1.0218039651902477,0.8547599030274257,97
23:43:45,-0.06676946580410004,0.11804068088531494,-0.15166783332824707,0.4561900496482849,0.42532801628112793,-0.1990049183368683,0.20885781943798065,0.83240807056427,-0.5132983922958374,0.3864349553429867,-0.9834389921546939,0.76658870915623,97
23:43:45,-0.0051326751708984375,-0.025559604167938232,0.0476841926574707,0.09149971604347229,0.7050840258598328,0.25674208998680115,0.24672332406044006,0.8191938400268555,-0.5177345871925354,0.44470736139188805,-0.9600040128732882,0.7741616396967691,97
23:43:45,0.007351696491241455,-0.11321526765823364,0.13286280632019043,-0.07286286354064941,0.23451997339725494,-0.23738321661949158,0.2720347046852112,0.8135113716125488,-0.514000415802002,0.4867728313274082,-0.95016484093302,0.7660436877371508,97
23:43:45,-0.008015573024749756,0.05503952503204346,0.01595747470855713,-0.2333899438381195,-0.4036564826965332,-0.2598956823348999,0.2354155033826828,0.8253710269927979,-0.5131688117980957,0.4301054380322493,-0.9708590233244901,0.7157466176534699,97
23:43:45,-0.01356285810470581,0.1057581901550293,-0.041063547134399414,-0.2965148687362671,-0.5422050952911377,-0.15086908638477325,0.18658092617988586,0.8496648669242859,-0.4932113289833069,0.36165905769581275,-1.0153493787226027,0.6955516470336585,97
23:43:45,-0.05434638261795044,-0.033816635608673096,-0.018031716346740723,0.04600120708346367,0.14881199598312378,0.2539425790309906,0.18792051076889038,0.8621340394020081,-0.4705430865287781,0.3799626296082499,-1.0394665082867982,0.7390846822426832,97
23:43:45,0.010475516319274902,-0.030255675315856934,0.09424275159835815,-0.16562555730342865,-0.010385114699602127,0.38391628861427307,0.22138015925884247,0.861212432384491,-0.4574974775314331,0.4506797528372419,-1.0376504474079444,0.8031610582861646,97
23:43:46,-0.0028680264949798584,-0.0878954529762268,0.03282219171524048,-0.11600714176893234,-0.41885170340538025,0.010552294552326202,0.2351355254650116,0.8675671815872192,-0.4382220208644867,0.49247161588901095,-1.0502893762079346,0.870761755233941,97
23:43:46,-0.07206711173057556,0.012619972229003906,-0.08458703756332397,0.3061366379261017,0.1268039047718048,-0.46993017196655273,0.20144470036029816,0.871695876121521,-0.4467286169528961,0.4236295798943585,-1.0586523807122088,0.8123916899525468,97
23:43:46,-0.01581934094429016,0.13850051164627075,-0.01417618989944458,0.005828221328556538,0.4057367444038391,-0.05451672151684761,0.18813523650169373,0.8773916363716125,-0.44134923815727234,0.40294833318146833,-1.070398241091866,0.742527068794882,97
23:43:46,-0.0021002590656280518,-0.10024374723434448,0.010874748229980469,-0.20897597074508667,0.4291349947452545,-0.10540759563446045,0.2058185487985611,0.8881845474243164,-0.41081276535987854,0.46444991539209945,-1.0933789612268714,0.7575860927388365,97
23:43:46,0.00651136040687561,-0.0395280122756958,0.07815074920654297,-0.2673492729663849,-0.20012575387954712,-0.332804799079895,0.19348382949829102,0.8991695046424866,-0.3925025761127472,0.4579910705271593,-1.1178680222360844,0.7353158669199342,97
23:43:46,-0.05121448636054993,-0.05513054132461548,0.03471565246582031,-0.5994531512260437,-0.5494132041931152,-0.12185181677341461,0.13789846003055573,0.9166642427444458,-0.37511420249938965,0.35228245888466403,-1.1596523296952095,0.6861673798244529,97
23:43:46,-0.014725476503372192,-0.06702005863189697,0.02455693483352661,-1.0257751941680908,0.04736793041229248,-0.0948638767004013,0.12251242995262146,0.9455057382583618,-0.30167821049690247,0.3857565062445458,-1.2391442577880931,0.7439492699267126,97
23:43:46,-0.027711883187294006,0.011148929595947266,-0.029456913471221924,-0.6701124310493469,-0.10581815987825394,-0.06523008644580841,0.11157315224409103,0.9681359529495239,-0.22419710457324982,0.4617710724464706,-1.3176768651098767,0.8266045244753238,97
23:43:46,0.013526566326618195,-0.10267210006713867,0.05229651927947998,-0.6025192737579346,0.12767581641674042,0.03973681479692459,0.11756061762571335,0.9796316623687744,-0.16279302537441254,0.6254360878839684,-1.3686187473470262,0.9901166275404694,97
23:43:46,-0.07492160052061081,0.1165238618850708,-0.05274397134780884,-0.25554266571998596,-0.05112535506486893,-0.01433947216719389,0.10926813632249832,0.9873032569885254,-0.11529379338026047,0.7585716523718526,-1.4112740486184348,1.1322445933004068,97
23:43:47,0.03400345891714096,-0.1561795473098755,0.09380477666854858,-0.24144147336483002,0.0959106981754303,-0.032323531806468964,0.1184765100479126,0.9877285957336426,-0.10176295787096024,0.8611410648407075,-1.4139740448610374,1.2243073328608622,97
23:43:47,-0.08852678537368774,0.0890035629272461,-0.06920492649078369,-0.2935001850128174,-0.11612112820148468,-0.02930430695414543,0.10657691210508347,0.9907446503639221,-0.0840630903840065,0.9029497028060064,-1.434637085613766,1.2777109369096438,97
23:43:47,-0.013604074716567993,0.0033602118492126465,0.03181767463684082,0.027318600565195084,0.04363471269607544,0.2614031732082367,0.12770810723304749,0.9894131422042847,-0.06893572956323624,1.0758246525975053,-1.4251558985027073,1.444422117229763,97
23:43:47,-0.03398756682872772,0.10145199298858643,-0.0050757527351379395,0.03410539776086807,-0.14114472270011902,0.09378592669963837,0.15353868901729584,0.9864444732666016,-0.05790628120303154,1.2101468427475415,-1.4059552663005797,1.5869228898272256,97
23:43:47,-0.02334994077682495,0.10187149047851562,-0.03206765651702881,-0.15211240947246552,-0.08754114806652069,0.3673703372478485,0.1759665459394455,0.9832016825675964,-0.04847783222794533,1.3019703620029024,-1.3872449618249145,1.6925950596109323,97
23:43:47,0.024150684475898743,0.04235374927520752,-0.0086442232131958,0.16843818128108978,-0.15894022583961487,0.46457862854003906,0.21785151958465576,0.974680483341217,-0.05038629472255707,1.3435056472804607,-1.345287642650087,1.7480076405443397,97
23:43:47,-0.04102885723114014,0.08092677593231201,-0.01316922903060913,0.07170949876308441,-0.2030182033777237,0.45367246866226196,0.2658950090408325,0.9620933532714844,-0.06063159182667732,1.34660135733569,-1.2945769831820453,1.7696947413604862,97
23:43:47,-0.010044246912002563,-0.07049441337585449,0.13815456628799438,-0.32024842500686646,-0.1612984538078308,0.5501058101654053,0.3101511597633362,0.9489796757698059,-0.05695633962750435,1.389179298855658,-1.2499842784376098,1.8368692706773546,97
23:43:47,-0.03709957003593445,-0.005905508995056152,0.02711355686187744,-0.09024851024150848,-0.24569937586784363,0.4696178734302521,0.3550892174243927,0.9337528347969055,-0.04491465911269188,1.4449761215212271,-1.2047585188044798,1.9166069160809873,97
23:43:47,-0.03279834985733032,0.10988926887512207,0.0318182110786438,-0.01965290494263172,-0.27024519443511963,0.40739738941192627,0.3982119560241699,0.9164536595344543,-0.03924340754747391,1.4725644760613457,-1.1591258448634463,1.970067105193267,97
23:43:48,-0.037154555320739746,-0.020921945571899414,0.011048495769500732,-0.2028011530637741,-0.26899218559265137,0.4541587829589844,0.43879202008247375,0.8979576826095581,-0.033671677112579346,1.4942092018904962,-1.1151065134845164,2.022986950147737,97
23:43:48,-0.010353505611419678,0.00044739246368408203,-0.06369280815124512,-0.2385745793581009,-0.0994337648153305,0.24655497074127197,0.47139331698417664,0.8817769289016724,-0.01605900749564171,1.536742388755442,-1.0796163658877522,2.0910572357326367,97
23:43:48,-0.03827965259552002,-0.024246394634246826,-0.0030823945999145508,0.056687407195568085,0.06989853829145432,0.012185611762106419,0.48355722427368164,0.8753126263618469,-0.0004667550965677947,1.5698310740227324,-1.066082011345229,2.125561766324515,97
23:43:48,-0.04123601317405701,0.022053182125091553,-0.033092498779296875,0.15631307661533356,0.07228313386440277,-0.018441272899508476,0.48279112577438354,0.8756910562515259,-0.00884621124714613,1.5524753160027005,-1.0668650559425314,2.1014744495922693,97
23:43:48,-0.03570449352264404,-0.03479856252670288,0.009210944175720215,0.186764195561409,0.15936024487018585,-0.0770217627286911,0.48005199432373047,0.8770617246627808,-0.01768706925213337,1.5339689159742391,-1.0697110289172143,2.0641729400469635,97
23:43:48,-0.027655720710754395,-0.008232533931732178,0.04165935516357422,0.03227180987596512,0.2635872960090637,-0.13463206589221954,0.47067582607269287,0.8822034597396851,-0.013468599878251553,1.5421886853399143,-1.080521449931687,2.0478965070351336,97
23:43:48,-0.020469844341278076,0.0057648420333862305,0.08036661148071289,-0.08079802244901657,0.28343266248703003,-0.09773929417133331,0.46057572960853577,0.887615442276001,0.0029695057310163975,1.577243615249261,-1.0921418357818655,2.0548078147448776,97
23:43:48,-0.015580624341964722,-0.0041506290435791016,0.04283297061920166,0.02867308259010315,0.12154095619916916,-0.16505680978298187,0.4476149082183838,0.89420485496521,0.006232385989278555,1.5847189712921588,-1.1066518493798831,2.0433303269338965,97
23:43:48,-0.021717727184295654,0.035720229148864746,0.014662742614746094,0.32021063566207886,0.13149718940258026,-0.24852533638477325,0.4298109710216522,0.9029024243354797,0.005471538286656141,1.5835257426082685,-1.126474585647393,2.027777990632406,97
23:43:48,-0.020000547170639038,0.029812335968017578,-0.018686950206756592,0.571540355682373,0.08016076683998108,-0.360227108001709,0.4020167887210846,0.915356457233429,-0.022472839802503586,1.514954191454166,-1.156392310555538,1.944486762827314,97
23:43:49,-0.008697450160980225,0.013149678707122803,-0.03969329595565796,0.45937013626098633,0.11687084287405014,-0.3932359218597412,0.36550650000572205,0.9296846985816956,-0.04573182016611099,1.446324132083644,-1.1935559110763925,1.8628812099433876,97
23:43:49,0.007290691137313843,0.055477023124694824,-0.08747166395187378,0.4694550037384033,0.06908813863992691,-0.33326688408851624,0.32731717824935913,0.9429147243499756,-0.06144491955637932,1.3852330876567163,-1.2312766542298765,1.7913706136620549,97
23:43:49,-0.010560363531112671,0.053820669651031494,0.03911513090133667,0.2543860971927643,0.07023569196462631,-0.2839147746562958,0.29710325598716736,0.9519258141517639,-0.074613057076931,1.3247496179224674,-1.2594623765388084,1.7209222611885524,97
23:43:49,0.002798736095428467,0.06466269493103027,0.05634409189224243,0.2599102854728699,0.02227482758462429,-0.16339099407196045,0.27779316902160645,0.9567384719848633,-0.0865020826458931,1.2689227831339103,-1.275577377249775,1.6575147645738884,97
23:43:49,-0.01281440258026123,0.01740562915802002,-0.01510918140411377,0.5536993145942688,-0.05771161988377571,-0.0818713828921318,0.263285368680954,0.957760751247406,-0.11565035581588745,1.1569107889427332,-1.2791115787355913,1.552827821397649,97
23:43:49,-0.027649134397506714,0.0031543970108032227,0.014288902282714844,0.5097531676292419,-0.009846623986959457,-0.17195892333984375,0.25160035490989685,0.9572718143463135,-0.1425764262676239,1.0552385860207996,-1.2774160948110302,1.4469113137979641,97
23:43:49,-0.006990835070610046,0.03385692834854126,-0.0012101531028747559,0.25418102741241455,0.02227562665939331,-0.19239629805088043,0.23364290595054626,0.958063006401062,-0.16591119766235352,0.9533200710880232,-1.2801645658711878,1.3376564233542545,97
23:43:49,-0.023058965802192688,0.04957842826843262,0.01038271188735962,0.09957468509674072,-0.10280213505029678,-0.019941432401537895,0.22322174906730652,0.9565469622612,-0.18759030103683472,0.8719158348064258,-1.2749198609099144,1.2538728577409541,97
23:43:49,-0.030226990580558777,0.019414126873016357,-0.0009015202522277832,0.07019682228565216,-0.15193691849708557,0.05595120042562485,0.22324876487255096,0.9544394016265869,-0.1980036199092865,0.8452553760700338,-1.2677755372255743,1.2398395923583814,97
23:43:49,-0.032913610339164734,0.013349473476409912,-0.058082640171051025,0.5121479034423828,0.036796510219573975,-0.15702711045742035,0.21970997750759125,0.9495337009429932,-0.22386008501052856,0.7760422659929793,-1.2517458767119414,1.178534622883513,97
23:43:50,-0.07549004256725311,0.12270200252532959,-0.06826519966125488,0.682870626449585,0.12170874327421188,-0.34454482793807983,0.19771146774291992,0.9416981935501099,-0.27224016189575195,0.6281199513560409,-1.227642484866501,1.0206600045510494,97
23:43:50,-0.04973769187927246,0.037848711013793945,-0.03146350383758545,0.39391976594924927,0.19242632389068604,-0.17073041200637817,0.17963442206382751,0.9276595711708069,-0.3273824453353882,0.5018438191183814,-1.1880957605461042,0.8730663109161234,97
23:43:50,-0.053940847516059875,0.08221328258514404,-0.04725521802902222,0.37490344047546387,0.3766472637653351,0.25112682580947876,0.19288596510887146,0.9182224869728088,-0.3459228277206421,0.5086581107946091,-1.1635690020866662,0.8598999058978389,97
23:43:50,-0.03880217671394348,-0.03905689716339111,0.03573721647262573,0.15788033604621887,0.32164686918258667,0.25874561071395874,0.23257188498973846,0.8987764120101929,-0.37163349986076355,0.559181411565779,-1.1169704588986333,0.8685738203885833,97
23:43:50,0.03295224905014038,-0.052500903606414795,0.1255403757095337,-0.3260820806026459,-0.167689248919487,0.1917223483324051,0.257893443107605,0.894382119178772,-0.3654746413230896,0.6145010155552112,-1.1070479738564445,0.9173027050348944,97
23:43:50,0.0052604079246521,-0.06911414861679077,0.02283942699432373,-0.2761629819869995,-0.5990129709243774,0.13167525827884674,0.2602710723876953,0.8975681066513062,-0.3558521270751953,0.631491956961524,-1.1142220746830231,0.9820497773815078,97
23:43:50,-0.09614603221416473,-0.039774954319000244,-0.14499282836914062,0.65671306848526,-0.17703667283058167,-0.4538542628288269,0.23628084361553192,0.8976015448570251,-0.37213262915611267,0.5657132597246148,-1.1142979947210925,0.9568659826959096,97
23:43:50,-0.13453739881515503,0.1693817377090454,-0.14089512825012207,0.30136531591415405,0.24707172811031342,-0.45186647772789,0.18633942306041718,0.8815295100212097,-0.4338012933731079,0.4057183703238327,-1.0790920717779053,0.7650020663016801,97
23:43:50,-0.02789844572544098,0.039036691188812256,0.06160259246826172,0.14605803787708282,0.3044562041759491,0.31307247281074524,0.2028234601020813,0.8698151111602783,-0.44976040720939636,0.423651073761036,-1.0548274759587477,0.743044685095252,97
23:43:50,0.011312976479530334,-0.1399303674697876,0.1175687313079834,-0.052954934537410736,0.21515826880931854,0.25133001804351807,0.2431098073720932,0.8581535816192627,-0.4521838426589966,0.493300290959476,-1.0316623022037703,0.7886461329708749,97
23:43:51,-0.02689647674560547,-0.07018870115280151,0.03203475475311279,0.13867148756980896,-0.2832629978656769,0.12460323423147202,0.2612385153770447,0.8523768186569214,-0.4529993236064911,0.5231006797513068,-1.0205137594808085,0.8279857891781993,97
23:43:51,-0.04738742113113403,-0.0864936113357544,6.729364395141602e-05,0.2059037983417511,-0.3700468838214874,0.03388984128832817,0.2547672390937805,0.8360432982444763,-0.4859272241592407,0.4828909995355143,-0.9900315387766724,0.8248870972625102,97
23:43:51,-0.02408921718597412,0.07466942071914673,-0.07033437490463257,0.5263243913650513,-0.6799296140670776,-0.07336657494306564,0.22667810320854187,0.8192898035049438,-0.5266700387001038,0.4064345073347581,-0.9601712990279202,0.8000928595545014,97
23:43:51,-0.05066941678524017,-0.03448617458343506,-0.05539357662200928,0.018783699721097946,0.10422242432832718,0.013888436369597912,0.20700913667678833,0.7957248091697693,-0.5691829323768616,0.3488230060283268,-0.9202033844956197,0.7588953811723764,97
23:43:51,-0.04083611071109772,0.04804891347885132,-0.015521764755249023,-0.043119877576828,0.14068163931369781,0.15129104256629944,0.2115648239850998,0.7875611782073975,-0.578781247138977,0.3504469089763187,-0.9068413044654572,0.7609001370183289,97
23:43:51,-0.007045283913612366,-0.027631759643554688,0.06852012872695923,-0.314081609249115,0.18584485352039337,0.26303303241729736,0.2400294989347458,0.7899839878082275,-0.564190685749054,0.40224358644103025,-0.910782929046761,0.7989206345767736,97
23:43:51,0.07096059620380402,-0.19957244396209717,0.17183935642242432,-0.3043235242366791,-0.20502915978431702,-0.2274581342935562,0.24591638147830963,0.7975264191627502,-0.5508871674537659,0.4198566617073325,-0.9231838725810234,0.8112310205230997,97
23:43:51,-0.10625825822353363,0.07031947374343872,-0.11575299501419067,-0.3434496223926544,-0.01488772127777338,-0.2811506390571594,0.19629842042922974,0.8178101778030396,-0.5409746170043945,0.3480857482661781,-0.9575955013305746,0.761162942576973,97
23:43:51,-0.028338953852653503,-0.07205432653427124,0.07207590341567993,-0.17014014720916748,0.47870469093322754,0.27372053265571594,0.2148602306842804,0.8209781050682068,-0.5289897918701172,0.3858147538229155,-0.9631219624196306,0.7754290425607784,97
23:43:51,0.015572786331176758,-0.20860415697097778,0.13510268926620483,-0.13174881041049957,0.40004608035087585,-0.19684696197509766,0.2462044060230255,0.8250810503959656,-0.5085514187812805,0.4508702431280079,-0.9703456588759426,0.7952614197321836,97
23:43:52,0.004995793104171753,-0.05731654167175293,0.12253952026367188,-0.3420908749103546,-0.21360693871974945,-0.24431167542934418,0.23290155827999115,0.837855875492096,-0.493714839220047,0.4407793415811495,-0.9933435481900419,0.7597314764520556,97
23:43:52,-0.016507819294929504,-0.008485615253448486,0.06354737281799316,-0.39244192838668823,-0.5087331533432007,-0.28693583607673645,0.19123417139053345,0.8576737642288208,-0.47731029987335205,0.3810662453421053,-1.0307284573960767,0.7291791388557447,97
23:43:52,-0.08759349584579468,0.09515714645385742,-0.15166586637496948,-0.131994366645813,0.08664342761039734,0.18747860193252563,0.16815809905529022,0.8813959360122681,-0.44143399596214294,0.3639646448681675,-1.0788092744346856,0.7393341046451055,97
23:43:52,-0.021029800176620483,0.018959403038024902,-0.0031949877738952637,-0.11498049646615982,0.20184645056724548,0.21996651589870453,0.19131584465503693,0.8865945339202881,-0.4211276173591614,0.42641924517303825,-1.0899299996924272,0.7880046064532369,97
23:43:52,-0.04305078089237213,-0.0929298996925354,0.11316084861755371,-0.5306075215339661,-0.03307391703128815,0.2096976339817047,0.215945765376091,0.8887728452682495,-0.4042898416519165,0.49058204409548345,-1.0946607757146436,0.8495341655724153,97
23:43:52,0.020073339343070984,-0.16628164052963257,0.012444257736206055,-0.20843400061130524,-0.3233478367328644,0.06754527240991592,0.22630788385868073,0.8929718732833862,-0.38908353447914124,0.5268126571683378,-1.1039050252425995,0.9057290567318808,97
23:43:52,-0.0336444228887558,0.03741699457168579,-0.00874781608581543,0.6599836945533752,-0.24572999775409698,-0.3492785692214966,0.19352391362190247,0.8920931220054626,-0.40831172466278076,0.442600403474081,-1.1019565598710341,0.8560338986814975,97
23:43:52,-0.08185428380966187,0.057983994483947754,-0.013562321662902832,0.30268198251724243,0.4335997700691223,-0.08687865734100342,0.18304863572120667,0.8779501914978027,-0.4423762559890747,0.39233318828628366,-1.0715636562472497,0.7879812431112296,97
23:43:52,-0.01672038435935974,0.0006909370422363281,0.034989118576049805,0.042250946164131165,0.2777358889579773,0.20069535076618195,0.20508787035942078,0.8744367957115173,-0.43965837359428406,0.4364664660346583,-1.0642736381451334,0.7912055699029292,97
23:43:52,-0.013660311698913574,-0.11407572031021118,0.04121047258377075,-0.3594251275062561,0.2209612876176834,0.021393759176135063,0.2334757149219513,0.8764861226081848,-0.42102381587028503,0.5063242284918711,-1.06851414491981,0.832943508407165,97
23:43:53,-0.010064318776130676,-0.007101655006408691,0.03881412744522095,-0.08119216561317444,0.03739412501454353,-0.19939641654491425,0.2271636724472046,0.8836170434951782,-0.40941134095191956,0.5065625220609248,-1.0835319985085874,0.8198012687784022,97
23:43:53,0.0003155171871185303,-0.11366254091262817,0.051908016204833984,-0.12261497229337692,-0.17598100006580353,-0.1709969937801361,0.21010062098503113,0.8809400200843811,-0.424031138420105,0.46002825208443504,-1.0778449337512321,0.7738036474261789,97
23:43:53,-0.0479535311460495,0.02028888463973999,0.00135040283203125,-0.28955018520355225,-0.41934171319007874,-0.2707699239253998,0.17496562004089355,0.8895973563194275,-0.4219048321247101,0.39311762340755063,-1.0964628249088286,0.736066765653512,97
23:43:53,-0.041707396507263184,0.02192598581314087,-0.07219362258911133,-0.39663374423980713,0.13362692296504974,0.12000048905611038,0.1646759808063507,0.901357114315033,-0.40054625272750854,0.390062929172584,-1.1228930075830157,0.7520286633895507,97
23:43:53,-0.006881296634674072,-0.005217075347900391,0.017446815967559814,-0.2517327666282654,0.22426654398441315,0.11058782041072845,0.18252289295196533,0.9105245471000671,-0.3709857165813446,0.4572226529082989,-1.1445510060425976,0.8032331221693034,97
23:43:53,-0.024385258555412292,0.006090402603149414,0.03091108798980713,-0.05935957282781601,0.13819876313209534,0.1731201708316803,0.20083539187908173,0.9099138975143433,-0.36293500661849976,0.505422733735895,-1.1430764409763106,0.8438414912919592,97
23:43:53,-0.007353067398071289,-0.06167936325073242,0.018763363361358643,-0.06960981339216232,-0.2694949805736542,0.04692388325929642,0.21238267421722412,0.9130469560623169,-0.3481937646865845,0.5477075051467051,-1.1506933750622361,0.8965291160781252,97
23:43:53,-0.025723204016685486,-0.057819247245788574,0.008106648921966553,0.3883625268936157,-0.198922261595726,-0.44812020659446716,0.18126888573169708,0.9160528779029846,-0.3577550947666168,0.4689807411337348,-1.1581253611652236,0.8523186347710093,97
23:43:53,-0.06415542960166931,0.15282177925109863,-0.016320407390594482,0.27860674262046814,0.46372121572494507,0.14471383392810822,0.17014066874980927,0.9073466062545776,-0.38441428542137146,0.4166806972520191,-1.13692857628021,0.7662435725375021,97
23:43:53,-0.0028055310249328613,-0.16475629806518555,0.09041422605514526,-0.006081169471144676,0.3000153601169586,0.07162417471408844,0.2042951136827469,0.9013622999191284,-0.38185006380081177,0.4912648662734268,-1.1229050108236651,0.8116825123841018,97
23:43:54,-0.01812848448753357,-0.0552445650100708,0.07680636644363403,-0.2713701128959656,-0.4143112897872925,-0.34220683574676514,0.18795621395111084,0.9113264083862305,-0.36627432703971863,0.4741176664233651,-1.146494509164648,0.7961942139430419,97
23:43:54,-0.05474427342414856,-0.036386847496032715,-0.05887937545776367,-0.5188933610916138,-0.22491444647312164,-0.04398391768336296,0.15364959836006165,0.9260832667350769,-0.34461790323257446,0.4194015438380266,-1.183896527836624,0.7786856999075352,97
23:43:54,0.017400696873664856,-0.0252302885055542,0.014528989791870117,-0.8731278777122498,0.10749945044517517,-0.13609625399112701,0.1442335844039917,0.9502655267715454,-0.2760292589664459,0.4815087771835289,-1.2540873214262618,0.8409092969920274,97
23:43:54,-0.04036301374435425,-0.012217104434967041,-0.057607412338256836,-0.6747340559959412,-0.03340974077582359,-0.1588902622461319,0.13108989596366882,0.9728659987449646,-0.19064944982528687,0.6023528839845487,-1.337311508879213,0.9680817309244217,97
23:43:54,-0.020571738481521606,-0.004123866558074951,0.0036594271659851074,-0.4047055244445801,0.08856037259101868,-0.008705554530024529,0.12619122862815857,0.9810841083526611,-0.1467992514371872,0.7100511836590345,-1.3759844360446956,1.0701879635500138,97
23:43:54,-0.014062859117984772,0.06756985187530518,0.01533597707748413,-0.3346896767616272,-0.0915960818529129,-0.05792316794395447,0.12248997390270233,0.988033652305603,-0.09373395889997482,0.9176141597113953,-1.4159396066810221,1.2809476337640306,97
23:43:54,-0.031013034284114838,0.033103764057159424,0.012346208095550537,-0.3665863573551178,0.024533987045288086,0.1405947208404541,0.1226096972823143,0.9900748133659363,-0.06869560480117798,1.0600958734136356,-1.4297880685070787,1.4266077347791273,97
23:43:54,0.0026368945837020874,0.09062165021896362,-0.022098004817962646,0.08447163552045822,-0.10375846922397614,0.43522608280181885,0.15486204624176025,0.9865884780883789,-0.05158541724085808,1.2492507258084826,-1.4068353434955188,1.6195266602018918,97
23:43:54,-0.01663815975189209,0.01753479242324829,0.01231849193572998,-0.00043793022632598877,-0.06941062211990356,0.47099339962005615,0.20305167138576508,0.9773234128952026,-0.06007751077413559,1.2831300393793041,-1.3574288582122775,1.6641199874490045,97
23:43:54,-0.015267953276634216,-0.01374673843383789,0.023343265056610107,0.10618944466114044,-0.1687246859073639,0.446603924036026,0.24599230289459229,0.966551661491394,-0.0725671574473381,1.2839351041977014,-1.3114260041898853,1.6757811626944654,97
23:43:55,-0.04377424716949463,-0.08835726976394653,0.05521124601364136,-0.14889317750930786,-0.17356018722057343,0.468204528093338,0.28571322560310364,0.9553470611572266,-0.07536692917346954,1.3128860105223525,-1.2708321626011392,1.7227718434202346,97
23:43:55,-0.059760600328445435,0.015080928802490234,-0.025649189949035645,-0.04709598422050476,-0.10690712928771973,0.21424230933189392,0.31401288509368896,0.9458111524581909,-0.08268731832504272,1.3133166994251342,-1.240083565627616,1.7404486139856647,97
23:43:55,-0.04290527105331421,0.06584620475769043,0.012481153011322021,-0.05834756791591644,-0.16466043889522552,0.30571043491363525,0.3409651219844818,0.9370686411857605,-0.07513309270143509,1.3539082088266927,-1.2141375744628484,1.7962332278664446,97
23:43:55,-0.03751105070114136,-0.03288143873214722,0.04616612195968628,-0.29511749744415283,-0.176690474152565,0.33436816930770874,0.3722982406616211,0.9254904985427856,-0.06972524523735046,1.385657714587744,-1.1823285595736848,1.8501878482473373,97
23:43:55,-0.018849432468414307,-0.01618826389312744,0.02326524257659912,-0.2595568597316742,-0.32266923785209656,0.3896985352039337,0.40525680780410767,0.9128113389015198,-0.05042508989572525,1.4470050735490487,-1.1501160030614606,1.9437738808791114,97
23:43:55,-0.027175188064575195,0.09969770908355713,-0.03154712915420532,-0.38474592566490173,-0.23060482740402222,0.33907103538513184,0.44399282336235046,0.8959705829620361,-0.010353157296776772,1.5474822539032649,-1.110611816582045,2.0864564418040503,97
23:43:55,-0.03043946623802185,-0.06038641929626465,-0.04426217079162598,-0.2830219566822052,-0.045457083731889725,0.1940307766199112,0.46510961651802063,0.8850496411323547,0.01897829957306385,1.611577633548022,-1.0866006748048027,2.176486872343636,97
23:43:55,-0.027365654706954956,0.007918477058410645,0.013233304023742676,0.13616251945495605,-0.023245520889759064,0.004893876612186432,0.47228991985321045,0.881229043006897,0.01943643018603325,1.611926717553489,-1.0784560649315011,2.1768764326574708,97
23:43:55,-0.05131876468658447,0.02948617935180664,0.03171491622924805,0.0717260092496872,0.05751617252826691,-0.018197594210505486,0.4681060314178467,0.8835720419883728,0.013314740732312202,1.599232517025102,-1.083435920445077,2.159727730750724,97
23:43:55,-0.06296923756599426,-0.015701711177825928,0.012326240539550781,0.06811210513114929,0.2609342634677887,0.016449598595499992,0.46970081329345703,0.8827850818634033,0.008472318761050701,1.5888320626027579,-1.0817581533493947,2.129357339866983,97
23:43:56,-0.04292559623718262,0.010450243949890137,0.005299091339111328,0.05781019479036331,0.2845378816127777,-0.11401519924402237,0.4633902609348297,0.8860674500465393,0.012402048334479332,1.59755366070046,-1.0887916989928434,2.110835853755737,97
23:43:56,-0.03298071026802063,-0.0005614161491394043,0.030994772911071777,0.05081593245267868,0.2577073276042938,-0.1421070247888565,0.4541321396827698,0.8905634880065918,0.02570764161646366,1.6273442609868776,-1.0985825237093987,2.108217490925864,97
23:43:56,-0.036987096071243286,-0.02049010992050171,0.0200272798538208,0.09965697675943375,0.17559993267059326,-0.236251100897789,0.4366084635257721,0.8992307186126709,0.02751959301531315,1.6337434244553888,-1.1180079299871832,2.093258502339217,97
23:43:56,-0.02122122049331665,-0.06221061944961548,0.08076763153076172,0.2534012794494629,0.0938241109251976,-0.3793374300003052,0.4092921316623688,0.9123867750167847,0.0055064670741558075,1.5842491502415725,-1.1490776303533983,2.024636824326707,97
23:43:56,-0.014927893877029419,-0.022408783435821533,0.008705377578735352,0.1802743375301361,0.0216098353266716,-0.41845470666885376,0.3692314922809601,0.9291943907737732,-0.016303565353155136,1.5266695862586932,-1.19222705638201,1.9530228255931397,97
23:43:56,0.0020704567432403564,0.012997329235076904,-0.04379534721374512,0.26926010847091675,0.016652094200253487,-0.38863104581832886,0.33207687735557556,0.9425246119499207,-0.037044692784547806,1.4597010773966739,-1.23010724196753,1.8764541122753668,97
23:43:56,-0.02166840434074402,-0.003351151943206787,0.0023003220558166504,-0.1902986764907837,0.025372084230184555,-0.36966562271118164,0.2942773699760437,0.9533332586288452,-0.06750036031007767,1.345320042973569,-1.2640903935981702,1.7544069429013789,97
23:43:56,0.0006061792373657227,0.06341588497161865,-0.04844850301742554,0.035086244344711304,-0.09156651794910431,-0.13452978432178497,0.2683716416358948,0.9607239365577698,-0.07061491906642914,1.3135046526421712,-1.2895991923055992,1.72209113683208,97
23:43:56,-0.03367727994918823,0.013644635677337646,-0.003682732582092285,0.051781065762043,-0.0010131848976016045,0.0029995704535394907,0.26363855600357056,0.9613320231437683,-0.0795980840921402,1.2775778658723735,-1.2917988216915435,1.6869768086358423,97
23:43:56,-0.03465959429740906,-0.0028482675552368164,-0.03380775451660156,0.1602630764245987,0.009922819212079048,0.042581334710121155,0.26797765493392944,0.9584000110626221,-0.09827084094285965,1.2193108575131906,-1.2813429283059874,1.6273634091237965,97
23:43:57,-0.029043227434158325,0.04692685604095459,-0.006205558776855469,0.6981387734413147,0.09905296564102173,-0.045871034264564514,0.2707078158855438,0.9532417058944702,-0.1343410611152649,1.11014637950383,-1.2637872605439886,1.5065754619355125,97
23:43:57,-0.026730328798294067,0.002143681049346924,0.03708308935165405,0.5329650044441223,0.026817914098501205,0.017021913081407547,0.26914265751838684,0.9422543048858643,-0.19929608702659607,0.9334127388709553,-1.2292991369477508,1.3146110772802024,97
23:43:57,-0.05238577723503113,-0.061076998710632324,0.02253025770187378,0.15177159011363983,0.060092512518167496,0.044337689876556396,0.2728406488895416,0.9282811284065247,-0.25268977880477905,0.8237232779179579,-1.1897636549649926,1.1943075248284867,97
23:43:57,-0.013390213251113892,-0.017890989780426025,0.04001134634017944,0.36661675572395325,0.16517232358455658,0.11226054280996323,0.2835122048854828,0.9165738821029663,-0.281980961561203,0.7881059513575883,-1.1594263646336207,1.141909044436145,97
23:43:57,-0.011991828680038452,-0.044747233390808105,0.0063051581382751465,0.11143773794174194,0.025724686682224274,0.02968258038163185,0.29302385449409485,0.9025219678878784,-0.31558048725128174,0.7483522151763664,-1.125590286375345,1.0883377838288881,97
23:43:57,-0.012422621250152588,-0.08298557996749878,0.022377967834472656,0.059272006154060364,-0.06340066343545914,-0.1065351739525795,0.29260027408599854,0.8942519426345825,-0.3386717438697815,0.7125453363122869,-1.1067569800406016,1.0469482247391348,97
23:43:57,-0.017410576343536377,-0.0004521012306213379,0.03394198417663574,0.16433264315128326,0.0026819510385394096,-0.07487179338932037,0.2759363651275635,0.8896302580833435,-0.3638917803764343,0.6487871249910862,-1.0965348624489182,0.9816196349054537,97
23:43:57,-0.036714643239974976,0.0005614757537841797,-0.043434977531433105,0.3106171488761902,0.1499883085489273,0.2516128420829773,0.28655797243118286,0.8835049271583557,-0.3705449402332306,0.6582734286395593,-1.0832925784917546,0.9862527172628095,97
23:43:57,-0.0050445497035980225,-0.10303419828414917,0.029479920864105225,0.07887100428342819,0.0883885994553566,0.008604724891483784,0.304250031709671,0.8723247051239014,-0.38272926211357117,0.6716531457243926,-1.0599370649715978,0.9813113225561525,97
23:43:57,-0.00913935899734497,-0.014711618423461914,0.027262449264526367,-0.010288963094353676,-0.09527363628149033,-0.042431026697158813,0.3033856153488159,0.8683067560195923,-0.3924289345741272,0.6581200363132422,-1.0517783942337144,0.9655884347734773,97
23:43:58,0.0038968324661254883,-0.04845637083053589,-0.00156402587890625,0.2871411144733429,-0.15467944741249084,0.03935385122895241,0.3011372983455658,0.8581516742706299,-0.4158027768135071,0.6268040184358483,-1.031658586878057,0.9410393406722299,97
23:43:58,-0.021111339330673218,-0.03782016038894653,0.005425631999969482,0.2045125663280487,-0.15063196420669556,-0.08979374915361404,0.2873274087905884,0.8582426905632019,-0.42527928948402405,0.5941758056273564,-1.031835865542959,0.9174070425966363,97
23:43:58,0.001227647066116333,-0.12206459045410156,0.08941060304641724,-0.2271544337272644,-0.3497605323791504,-0.2581832706928253,0.25032511353492737,0.8628661632537842,-0.43908920884132385,0.5181446184946177,-1.0409132542655417,0.8545735666948536,97
23:43:58,-0.02756112813949585,-0.07221454381942749,-0.003101825714111328,-0.034599095582962036,-0.4285067319869995,-0.028648903593420982,0.21002256870269775,0.869610607624054,-0.44684237241744995,0.43937308679222603,-1.0544130528397613,0.8207913498656142,97
23:43:58,-0.05707371234893799,-0.04372143745422363,-0.03786379098892212,-0.37579265236854553,-0.09673038870096207,0.16484306752681732,0.20576754212379456,0.8754497766494751,-0.4373185634613037,0.439787489426109,-1.0663656422720345,0.8490013021543428,97
23:43:58,-0.055797263979911804,-0.03587758541107178,0.006051301956176758,-0.06259877234697342,0.18451513350009918,0.32365188002586365,0.2277146279811859,0.8709017038345337,-0.43551841378211975,0.4817669641111122,-1.0570341145806779,0.8967753524208653,97
23:43:58,0.00881543755531311,-0.17138266563415527,0.09040844440460205,-0.34988993406295776,-0.08971482515335083,0.32457226514816284,0.2609255909919739,0.8641647100448608,-0.43027588725090027,0.5451228024831725,-1.043488102321537,0.9612733698567685,97
23:43:58,0.004622429609298706,-0.22208154201507568,0.03248840570449829,0.12137265503406525,-0.3937482237815857,-0.3097551465034485,0.25193506479263306,0.8636395931243896,-0.4366411864757538,0.523324168214792,-1.0424454808047574,0.9652738792899742,97
23:43:58,-0.03576844930648804,0.0318378210067749,-0.05282866954803467,-0.16475975513458252,0.37541237473487854,-0.11948905885219574,0.20960867404937744,0.8686008453369141,-0.4489954113960266,0.4367688591544604,-1.052371591939688,0.8634931208724625,97
23:43:58,-0.0187348872423172,-0.01968860626220703,0.030154645442962646,-0.20194680988788605,0.5669053792953491,0.2868190109729767,0.24253183603286743,0.8674383759498596,-0.4344295859336853,0.5091753377112733,-1.0500304626523187,0.8991768270764834,97
23:43:59,0.00833621621131897,-0.08407384157180786,0.05775439739227295,-0.0536407008767128,0.01279397401958704,-0.25052696466445923,0.26088595390319824,0.8719484210014343,-0.4143000543117523,0.5619740596605772,-1.059167952050309,0.9181841663928108,97
23:43:59,-0.05313955247402191,0.14041036367416382,-0.06635117530822754,-0.1424563229084015,-0.28570616245269775,-0.34028854966163635,0.2211964726448059,0.8838682174682617,-0.41212761402130127,0.49258904571897166,-1.0840687400146156,0.8540337002219285,97
23:43:59,-0.08492957055568695,0.16122108697891235,-0.19976168870925903,-0.16794809699058533,0.006181344389915466,0.12382160127162933,0.1841547191143036,0.8942769765853882,-0.4078673720359802,0.4241059088843407,-1.106812947253639,0.8100136578047074,97
23:43:59,-0.035399287939071655,-0.020598948001861572,0.045958757400512695,0.08209049701690674,0.16892178356647491,0.13890813291072845,0.19974876940250397,0.8969590067863464,-0.3944174349308014,0.46878634258925034,-1.1128425165514604,0.8638953590484391,97
23:43:59,-0.017416685819625854,-0.02103137969970703,0.028953969478607178,0.1108345314860344,0.15277637541294098,0.17861267924308777,0.2182343453168869,0.8945531249046326,-0.3900623321533203,0.5100968196465171,-1.1074303678393052,0.8955680591566545,97
23:43:59,-0.016588225960731506,-0.055891454219818115,0.03629589080810547,-0.07282184809446335,0.01668272167444229,0.23375341296195984,0.2419569045305252,0.8902134299278259,-0.38597553968429565,0.5599436778711623,-1.0978134603573249,0.9434512991357203,97
23:43:59,-0.01229625940322876,-0.14837002754211426,0.07428324222564697,-0.4313448667526245,-0.3563835620880127,0.0597081258893013,0.25354912877082825,0.8967694640159607,-0.362653523683548,0.6101550908747029,-1.1124139311576597,1.0140750492332988,97
23:43:59,-0.05673764646053314,-0.1160808801651001,-0.08960622549057007,0.09941915422677994,-0.1411026567220688,-0.4427507519721985,0.2215445637702942,0.9046417474746704,-0.3640623092651367,0.5466714355168459,-1.1305383482549072,0.9809031509065833,97
23:43:59,-0.08914059400558472,0.17321765422821045,-0.11138278245925903,-0.06145787984132767,0.3456132113933563,0.015372882597148418,0.19431649148464203,0.9039324522018433,-0.3809818923473358,0.47164833378895055,-1.1288769760319703,0.8797160974930476,97
23:43:59,-0.028396114706993103,-0.054851651191711426,0.004614591598510742,0.15762867033481598,0.3828444480895996,0.2871841490268707,0.2289542704820633,0.8922103047370911,-0.38928237557411194,0.531656557688825,-1.1022159485771987,0.9104513981708462,97
23:44:00,0.02090469002723694,-0.1295759677886963,0.08959788084030151,0.3228365182876587,-0.18233077228069305,-0.1450977474451065,0.2411462366580963,0.8839728832244873,-0.4005502164363861,0.5419162732484313,-1.0842925094163673,0.9109034934933454,97
23:44:00,-0.06373913586139679,0.13365566730499268,-0.09252244234085083,0.420125275850296,-0.20220088958740234,-0.10329171270132065,0.20779433846473694,0.8663316965103149,-0.4541926681995392,0.4290755743089789,-1.0478104674591544,0.8054616041887519,97
23:44:00,-0.031206771731376648,-0.01861393451690674,0.011126339435577393,-0.06347788125276566,0.20159319043159485,0.29965493083000183,0.23030021786689758,0.8571792244911194,-0.46065783500671387,0.46359775117803104,-1.0297673646238912,0.8284510003877165,97
23:44:00,-0.0014370381832122803,-0.15447121858596802,0.07399433851242065,-0.6241323947906494,-0.3303777873516083,0.10546255856752396,0.25114357471466064,0.8663883805274963,-0.43162262439727783,0.5269738650226743,-1.0479239201886006,0.9077114663461401,97
23:44:00,-0.06875014305114746,-0.11594283580780029,-0.0638696551322937,0.24125219881534576,-0.045764144510030746,-0.4109131991863251,0.2153230458498001,0.8723239898681641,-0.43896105885505676,0.4560419768601218,-1.05993557461859,0.8679530082310828,97
23:44:00,-0.06785222887992859,0.05732369422912598,-0.029269874095916748,-0.2729533612728119,0.5132418870925903,0.18975773453712463,0.21648499369621277,0.8631046414375305,-0.45627260208129883,0.44301102746555115,-1.0413851966513894,0.8215298753869221,97
23:44:00,0.015235617756843567,-0.14181220531463623,0.08339565992355347,-0.3744754493236542,0.20622310042381287,-0.046409524977207184,0.24765445291996002,0.8664699792861938,-0.43347108364105225,0.5190708003781888,-1.0480874249418328,0.8572469862951535,97
23:44:00,-0.021084845066070557,-0.04614800214767456,0.013730049133300781,-0.3325463831424713,-0.34445762634277344,-0.3340083062648773,0.22286389768123627,0.8767476677894592,-0.4261985719203949,0.4818079158252783,-1.0690576113663082,0.829157565640737,97
23:44:00,-0.055020421743392944,0.020286738872528076,-0.0824170708656311,-0.8690993189811707,-0.1456153690814972,-0.37703219056129456,0.1774848848581314,0.9044590592384338,-0.38788291811943054,0.4291340412242505,-1.1301098203959055,0.8054304148619188,97
23:44:00,0.0012223124504089355,0.04334968328475952,-0.06917089223861694,-0.9945786595344543,-0.13253764808177948,-0.16576442122459412,0.14640429615974426,0.9423083662986755,-0.3010329604148865,0.4526598134009036,-1.2294605470117181,0.8517811562370163,97
23:44:01,-0.04186162352561951,0.03895777463912964,-0.07601523399353027,-0.6274884939193726,0.14377489686012268,-0.008436575531959534,0.13571637868881226,0.9688554406166077,-0.2071235477924347,0.5800525993497675,-1.3205661856796609,0.9865268436631497,97
23:44:01,-0.03757971525192261,0.006820082664489746,0.03142768144607544,-0.5371716618537903,-0.02405032515525818,-0.10482116788625717,0.13169391453266144,0.9798287749290466,-0.15030665695667267,0.7194912478292695,-1.369602922056053,1.1194602455308318,97
23:44:01,-0.03366294503211975,0.01704031229019165,-0.04430299997329712,-0.4313206374645233,0.12134841084480286,0.14544087648391724,0.12706011533737183,0.9854323267936707,-0.11304350197315216,0.8437093100733883,-1.3998975065185941,1.2459971941317913,97
23:44:01,-0.03474465012550354,0.031552672386169434,-0.016742229461669922,0.13350363075733185,-0.041414402425289154,-0.06791428476572037,0.13851764798164368,0.9864228367805481,-0.08822119981050491,1.0036889780184604,-1.4058237645845557,1.4071751503814622,97
23:44:01,-0.08534646034240723,0.11056375503540039,-0.03980499505996704,-0.03162567317485809,-0.03299002721905708,0.0018791784532368183,0.13217364251613617,0.9872605204582214,-0.0885811373591423,0.9803601070875725,-1.4110050880563436,1.3926459468763397,97
23:44:01,-0.061427950859069824,0.08268952369689941,0.001891791820526123,-0.26469168066978455,-0.0395219624042511,0.28357982635498047,0.14768356084823608,0.9860970377922058,-0.07617070525884628,1.0946127055380102,-1.40385127335451,1.512297897833585,97
23:44:01,-0.012721329927444458,-0.0007996559143066406,-0.001979053020477295,-0.1604137420654297,-0.054487064480781555,0.4427311420440674,0.18357104063034058,0.9810086488723755,-0.06264160573482513,1.2419476103470792,-1.375595020619055,1.6697887439219534,97
23:44:01,0.005218178033828735,0.09601092338562012,-0.006438553333282471,-0.07772313058376312,-0.11357728391885757,0.5592162609100342,0.2297939956188202,0.971951425075531,-0.05004940927028656,1.3563442680271784,-1.3333909105708774,1.793839060177045,97
23:44:01,-0.007671087980270386,0.021059095859527588,0.007830619812011719,0.01345045305788517,-0.27310994267463684,0.5742819905281067,0.28591060638427734,0.9572430849075317,-0.04405481368303299,1.4179127305640569,-1.2773168311931056,1.8744725413624825,97
23:44:01,-0.05159243941307068,0.07617998123168945,-0.04862534999847412,-0.08813875913619995,-0.30820509791374207,0.48231104016304016,0.3400087356567383,0.939552366733551,-0.040440019220113754,1.4524142745906012,-1.221320565852985,1.9422820049766552,97
23:44:02,-0.01664865016937256,-0.12628310918807983,-0.017928600311279297,-0.5492443442344666,-0.25153622031211853,0.5379844307899475,0.38559988141059875,0.9224868416786194,-0.018189793452620506,1.5236585552912274,-1.1744737851753602,2.051343345486215,97
23:44:02,-0.03734368085861206,-0.04841291904449463,0.0234907865524292,-0.20313377678394318,-0.26636070013046265,0.39364826679229736,0.4249558448791504,0.9051944017410278,-0.005959353409707546,1.556773780512001,-1.131836932754032,2.117811029880137,97
23:44:02,-0.0418056845664978,-0.006192147731781006,0.003545999526977539,-0.23099124431610107,-0.21096162497997284,0.2974573075771332,0.4550061821937561,0.8904853463172913,0.0022968584671616554,1.575844255883248,-1.0984106706309549,2.1711611379725038,97
23:44:02,-0.024573981761932373,-0.03928089141845703,-0.030388355255126953,-0.4277344048023224,-0.028012311086058617,0.2165062576532364,0.47737064957618713,0.8786524534225464,0.009329876862466335,1.5903381426338954,-1.0730325110067893,2.207159203966072,97
23:44:02,-0.058533668518066406,0.023865818977355957,0.03365647792816162,0.07215850800275803,0.008708951063454151,0.03569040447473526,0.485619455575943,0.8740085363388062,0.016818635165691376,1.6054158536364365,-1.0633915741345075,2.219631730776298,97
23:44:02,-0.07049205899238586,0.03845614194869995,-0.015462160110473633,0.1940908133983612,0.03315889835357666,-0.009336724877357483,0.48622527718544006,0.8738223910331726,0.004398702643811703,1.5798427147331584,-1.063008653378557,2.189549362637719,97
23:44:02,-0.07080078125,-0.02306365966796875,-0.009998977184295654,0.20419883728027344,0.2623750567436218,-0.07612427324056625,0.4828111529350281,0.8756197094917297,-0.013560553081333637,1.5427170484444872,-1.0667174249746554,2.132374654253999,97
23:44:02,-0.028001725673675537,-0.01722007989883423,0.04973727464675903,-0.02974788285791874,0.3643421530723572,-0.14194084703922272,0.47336769104003906,0.880853533744812,-0.004495523404330015,1.561299717044537,-1.0776622676506729,2.1178527604124175,97
23:44:02,-0.02554747462272644,-0.013748407363891602,0.039035797119140625,-0.09102962166070938,0.33643755316734314,-0.22791646420955658,0.4555787444114685,0.8900466561317444,0.0162766482681036,1.6065085456480692,-1.097447522982259,2.1302097269192535,97
23:44:02,-0.025929003953933716,-0.010559678077697754,0.018625736236572266,0.03596188873052597,0.1819952428340912,-0.228742316365242,0.43488866090774536,0.9001032710075378,0.02618938498198986,1.630944581152239,-1.1200064680201827,2.1281028345971396,97
23:44:03,-0.03838571906089783,-0.011176526546478271,0.06110334396362305,-0.08820240944623947,0.14678026735782623,-0.3750087022781372,0.40674203634262085,0.9132624268531799,0.0226521547883749,1.6264305551019123,-1.1512219219178357,2.1041544759372286,97
23:44:03,-0.04490864276885986,-0.02696889638900757,0.054113030433654785,0.00966077484190464,0.07182267308235168,-0.38455986976623535,0.37208181619644165,0.9280470609664917,0.01683972030878067,1.6160235736597615,-1.1891347260379992,2.0842672224234904,97
23:44:03,-0.039362937211990356,-0.010778069496154785,0.001091599464416504,0.026839230209589005,0.037586670368909836,-0.3015299439430237,0.34235164523124695,0.9394598603248596,0.014518427662551403,1.6131788721409226,-1.2210506520576603,2.074198892866077,97
23:44:03,-0.035106807947158813,6.759166717529297e-05,0.0031737089157104492,0.03505720943212509,0.08261246979236603,-0.27441632747650146,0.31740519404411316,0.948161244392395,0.0156260896474123,1.619987338946093,-1.2473988819043413,2.0733497023186596,97
23:44:03,0.028199493885040283,0.011285901069641113,0.028416872024536133,0.1956615447998047,0.04975012689828873,-0.37468940019607544,0.2883400321006775,0.9575116634368896,0.005611524451524019,1.590255352443802,-1.2782465052312764,2.028774338446038,97
23:44:03,-0.007898986339569092,-0.023529767990112305,0.036894261837005615,0.276488721370697,-0.053457215428352356,-0.21991686522960663,0.25827670097351074,0.9658527374267578,-0.020535850897431374,1.4914522012821771,-1.3087147916617217,1.9266761853905041,97
23:44:03,-0.07298775017261505,-0.01403653621673584,0.07549065351486206,0.15977145731449127,0.02961636334657669,-0.09514563530683517,0.24118159711360931,0.9694046378135681,-0.045674797147512436,1.3836335453310094,-1.3227936025214382,1.8195619916754564,97
23:44:03,-0.04303188621997833,-0.012919366359710693,0.030078232288360596,0.11204147338867188,-0.011043715290725231,0.06803183257579803,0.2411787211894989,0.9685468077659607,-0.0612361803650856,1.3221469474951568,-1.3193227358842468,1.7546741315111103,97
23:44:03,-0.03646308183670044,-0.006249785423278809,0.00990968942642212,0.017291799187660217,-0.03174659609794617,0.0984395444393158,0.24811401963233948,0.9659368395805359,-0.0735221654176712,1.282715315147496,-1.309039455407002,1.7175097969639679,97
23:44:03,-0.04762640595436096,-0.06434470415115356,-0.011213064193725586,0.026501275599002838,-0.003442521207034588,-0.029579944908618927,0.2517395317554474,0.9643548727035522,-0.0815281867980957,1.2575964840275518,-1.3029943857812105,1.696200024526748,97
23:44:04,-0.02887970209121704,-0.07290542125701904,-0.01620018482208252,-0.06378814578056335,0.001733332872390747,-0.1380891054868698,0.2424381822347641,0.9661104083061218,-0.0886257141828537,1.2203273368767467,-1.309711022801597,1.661553966916388,97
23:44:04,-0.03897473216056824,0.04913419485092163,0.007288932800292969,-0.09533275663852692,-0.044911399483680725,-0.08152889460325241,0.2294926792383194,0.9698339104652405,-0.08219217509031296,1.2268818904705305,-1.3245486542119638,1.670988941140616,97
23:44:04,-0.04045934975147247,0.004305481910705566,0.005694925785064697,0.017589539289474487,-0.005990899167954922,-0.0077619971707463264,0.22662854194641113,0.9705796837806702,-0.08133076131343842,1.2262391878237635,-1.327626782187514,1.6718447623331965,97
23:44:04,-0.05689993500709534,0.011113643646240234,0.0022496581077575684,0.020410358905792236,0.0061350055038928986,0.054073404520750046,0.2298397719860077,0.9696464538574219,-0.08342429995536804,1.222616450144556,-1.3237807124027134,1.6679261802048357,97
23:44:04,-0.07250255346298218,0.012885332107543945,-0.008518040180206299,-0.05509558320045471,0.01854853145778179,0.027858847752213478,0.23323525488376617,0.9688662886619568,-0.08306322246789932,1.2286665675707673,-1.3206099113756269,1.6744900304334334,97
23:44:04,-0.016202479600906372,0.04620790481567383,-0.022062599658966064,0.0005716737359762192,0.0772017240524292,0.08509044349193573,0.23491843044757843,0.968975305557251,-0.0768129751086235,1.254777157276901,-1.3210507322570182,1.6974797732501092,97
23:44:04,-0.024915605783462524,-0.029998183250427246,0.04578137397766113,-0.04937351495027542,0.09068530797958374,0.06729280948638916,0.24173946678638458,0.9675298929214478,-0.07380998879671097,1.274458035652202,-1.3152679609616447,1.7083782824846927,97
23:44:04,0.03203478455543518,-0.050857365131378174,0.01544642448425293,0.08559788018465042,-0.018304556608200073,0.03175904601812363,0.2455037385225296,0.9665384888648987,-0.07437416911125183,1.2766397486834562,-1.3113746564281625,1.709118364827741,97
23:44:04,-0.037198781967163086,-0.08628082275390625,0.03788989782333374,0.10664217919111252,-0.13072670996189117,-0.08806349337100983,0.23671914637088776,0.9661033749580383,-0.10299735516309738,1.160399071812185,-1.3096837719434666,1.5981271358021916,97
23:44:04,-0.04457627236843109,0.02092033624649048,-0.010166287422180176,0.4984365701675415,-0.06137000396847725,-0.07199637591838837,0.2253437042236328,0.9654541611671448,-0.13083820044994354,1.0447515917113102,-1.3071806178487186,1.4866828622590642,97
23:44:05,-0.06224137544631958,0.03981971740722656,0.025652587413787842,0.5608472228050232,-0.061643242835998535,0.10562688112258911,0.22649872303009033,0.9544587731361389,-0.1941831409931183,0.8620647618346966,-1.2678403309891668,1.2992537879620614,97
23:44:05,-0.06924501061439514,0.07360607385635376,-0.013788461685180664,0.8782488703727722,0.014103183522820473,0.10505936294794083,0.24041441082954407,0.943469226360321,-0.22818200290203094,0.81149659070622,-1.2329456102424954,1.2535039846668201,97
23:44:05,-0.05212488770484924,0.03012627363204956,-0.026518404483795166,0.24675588309764862,0.038791216909885406,0.15999078750610352,0.25417762994766235,0.9318031668663025,-0.25910767912864685,0.7757936228323123,-1.1993495063759556,1.2144761251759641,97
23:44:05,-0.046762675046920776,-0.03759831190109253,-0.005243360996246338,0.2608109712600708,0.17847613990306854,0.23386314511299133,0.27470919489860535,0.9114694595336914,-0.30619990825653076,0.7312417968837489,-1.1468421260695687,1.1475703549059135,97
23:44:05,-0.07375410199165344,-0.04181182384490967,0.010414063930511475,0.8373051881790161,0.2775265574455261,0.10296638309955597,0.3004184663295746,0.8907657265663147,-0.3410065174102783,0.7222044569705083,-1.099027237891641,1.1088056612712751,97
23:44:05,-0.011487364768981934,-0.011255383491516113,-0.03735184669494629,0.7933284044265747,0.3560035228729248,0.020440878346562386,0.3172987103462219,0.8747966289520264,-0.36613166332244873,0.7140666760628082,-1.065015926267589,1.07380997914156,97
23:44:05,-0.049241065979003906,0.04964965581893921,-0.04148900508880615,1.0610339641571045,0.0760541707277298,-0.2449210286140442,0.31664615869522095,0.8493078947067261,-0.4223876893520355,0.6432819829117519,-1.0146728434722119,0.9814645186136074,97
23:44:05,-0.05116164684295654,0.02527827024459839,-0.05444192886352539,0.7642523050308228,0.11865542829036713,-0.12942717969417572,0.31470605731010437,0.8234471678733826,-0.47211745381355286,0.5879455354882637,-0.967459973545798,0.9021135812393214,97
23:44:05,-0.010868042707443237,-0.06605398654937744,0.05505955219268799,-0.04653538763523102,-0.26523658633232117,-0.1928199976682663,0.3030228912830353,0.806289792060852,-0.5080098509788513,0.5378347466878692,-0.9378527227980946,0.8448931613165703,97
23:44:05,-0.04502153396606445,0.005429208278656006,0.011729240417480469,-0.35143962502479553,-0.524711549282074,-0.24370820820331573,0.2603185772895813,0.8137706518173218,-0.519626259803772,0.46442548837316516,-0.9506108294441471,0.805765283242277,97
23:44:06,-0.05776098370552063,0.06721699237823486,-0.04910820722579956,-0.387829065322876,-0.4256123900413513,-0.16512471437454224,0.21425142884254456,0.8406970500946045,-0.4973176121711731,0.4067849067737049,-0.9985692187609398,0.8012199085343913,97
23:44:06,-0.07670116424560547,0.04976606369018555,-0.04617434740066528,0.03318527713418007,0.08201565593481064,0.11768274009227753,0.19684557616710663,0.8745509386062622,-0.44318434596061707,0.4179883097540857,-1.0645090368032175,0.8455294830805187,97
23:44:06,-0.0366736501455307,0.03164714574813843,0.022575438022613525,-0.18471242487430573,0.16499336063861847,0.2937251627445221,0.22247618436813354,0.8792116045951843,-0.42129722237586975,0.4858539085878811,-1.0742048651948164,0.9007791531731486,97
23:44:06,-0.030897632241249084,-0.07468020915985107,0.03419739007949829,-0.13273045420646667,-0.2108745276927948,0.1905609518289566,0.24474555253982544,0.8772475123405457,-0.41296079754829407,0.535005328961088,-1.0700979081065733,0.9573588250389243,97
23:44:06,-0.010516613721847534,-0.07966744899749756,-0.023515820503234863,0.09934698045253754,-0.46877533197402954,-0.15305234491825104,0.2346644401550293,0.8780694007873535,-0.41704535484313965,0.5125286433922241,-1.0718127060731226,0.9677125404911449,97
23:44:06,-0.09652316570281982,0.11686372756958008,-0.0914149284362793,0.4250233471393585,0.1646503359079361,-0.29101526737213135,0.19977621734142303,0.8698319792747498,-0.4510895907878876,0.4169128316041494,-1.0548616188248625,0.8710272344747985,97
23:44:06,-0.04598154127597809,-0.06807434558868408,0.024482011795043945,0.06667239964008331,0.36682289838790894,0.30438685417175293,0.22494837641716003,0.8561164736747742,-0.46525561809539795,0.4503559566248522,-1.0277074385012004,0.8736706333694634,97
23:44:06,-0.007871836423873901,-0.07552587985992432,0.08847779035568237,-0.2548806071281433,-0.06897598505020142,0.2760084569454193,0.26290324330329895,0.853115975856781,-0.4506382942199707,0.5281256189980781,-1.0219289730415761,0.9354039557192998,97
23:44:06,-0.029556021094322205,-0.17794936895370483,0.015430808067321777,0.05594145506620407,-0.5393402576446533,-0.3847428262233734,0.2488514631986618,0.8636049032211304,-0.438474178314209,0.5162095287932699,-1.042376705739804,0.9652193564493029,97
23:44:06,-0.06265437602996826,0.12190026044845581,-0.009309530258178711,0.29051080346107483,0.10231080651283264,-0.3164884150028229,0.18594251573085785,0.8704264163970947,-0.4558325707912445,0.3873139352700904,-1.0560677768994873,0.8594031387189759,97
23:44:07,-0.030043870210647583,-0.1245121955871582,0.06939029693603516,-0.1434379518032074,0.4566097855567932,0.28670796751976013,0.20812594890594482,0.8687462210655212,-0.44940370321273804,0.43370733347812335,-1.0526650948269591,0.8750306829730649,97
23:44:07,0.008139148354530334,-0.20825761556625366,0.08178770542144775,-0.009490547701716423,-0.09003626555204391,-0.18159398436546326,0.22781912982463837,0.8730996251106262,-0.43103986978530884,0.4862132037835241,-1.061524280391548,0.9141031775509312,97
23:44:07,-0.09323462843894958,-0.017315924167633057,-0.020290672779083252,-0.25333172082901,0.14139588177204132,-0.04639274626970291,0.1906590461730957,0.8773182034492493,-0.4404112696647644,0.40855252463217695,-1.0702452013703339,0.8598147314616208,97
23:44:07,-0.03867456316947937,-0.025200843811035156,-0.000361025333404541,-0.2355271428823471,0.4344237744808197,0.38490962982177734,0.21603943407535553,0.8734846115112305,-0.4362931251525879,0.4597764414524024,-1.0623144784226444,0.8930158207944824,97
