Time,Acce_X,Acce_Y,Acce_Z,Gyro_X,Gyro_Y,Gyro_Z,Gravity_X,Gravity_Y,Gravity_Z,Roll,Pitch,Yaw,Heart_Rate
16:30:01,0.020015453919768333,0.042675673961639404,0.0022448301315307617,-0.2921799123287201,0.05334622785449028,-0.11953695863485336,-0.003337597008794546,-0.5123564600944519,-0.8587664365768433,-0.0038864820892289048,0.5379265141512127,0.001991271392976748,
16:30:01,0.03044590726494789,0.05142673850059509,0.014539957046508789,-0.2895188629627228,0.23928281664848328,-0.2869805693626404,0.018641622737050056,-0.47792527079582214,-0.8782026767730713,0.02122382884296855,0.49829126328260487,-0.024962995224162246,
16:30:01,0.06117090955376625,0.11927947402000427,0.026617586612701416,-0.2601061165332794,0.21215344965457916,-0.20748385787010193,0.04776161164045334,-0.4339616894721985,-0.8996644020080566,0.05303846011459431,0.448885461581177,-0.055817639184057036,
16:30:01,0.03509237617254257,0.0588984489440918,0.030541539192199707,-0.07838957011699677,-0.004125587642192841,-0.02510739117860794,0.0744657963514328,-0.38774096965789795,-0.9187555909156799,0.08087393447127185,0.39817956980817626,-0.0721522578184112,
16:30:01,-0.00888698548078537,0.014131605625152588,0.019267022609710693,-0.30829840898513794,-0.08726069331169128,-0.06489527970552444,0.09014012664556503,-0.35910266637802124,-0.9289348721504211,0.09673314445336141,0.367306244512014,-0.07941018632836463,
16:30:01,-0.07221966236829758,-0.006796300411224365,0.02425229549407959,-0.6537514328956604,0.039663705974817276,-0.2922152280807495,0.08961474150419235,-0.33138442039489746,-0.9392303228378296,0.09512499296461473,0.3377705239794299,-0.08692227983346072,
16:30:01,-0.1322782039642334,-0.07546590268611908,0.09711825847625732,-2.8306286334991455,0.3105303645133972,-0.8022872805595398,0.11537151783704758,-0.15021167695522308,-0.981899082660675,0.11696205795221255,0.1507823703934519,-0.12616677526596295,
16:30:02,0.00566062331199646,0.09479187428951263,0.1302087903022766,-3.2036097049713135,0.5026097893714905,-0.6402518153190613,0.16203343868255615,0.16608761250972748,-0.9727075695991516,0.16506415988888226,-0.16686084079306418,-0.1591982352970154,
16:30:02,0.04150448739528656,0.04249227046966553,0.15176880359649658,-3.7011969089508057,0.10986702889204025,-0.0840894877910614,0.17628411948680878,0.48446980118751526,-0.8568622469902039,0.2029011298099238,-0.5057569763943671,-0.13250663590994877,
16:30:02,0.06440600752830505,0.05940967798233032,0.1432105302810669,-3.4783682823181152,-0.9232024550437927,0.6830964088439941,0.17350903153419495,0.7416920065879822,-0.6479102373123169,0.26165826266404957,-0.8355894274466342,0.009917343527911219,
16:30:02,0.0033816546201705933,0.05317932367324829,0.007455587387084961,-1.9399561882019043,-0.9184476137161255,0.15398113429546356,0.1655483990907669,0.8769354224205017,-0.45119643211364746,0.3516591000721897,-1.0694481353019736,0.2552046664248279,
16:30:02,-0.020502552390098572,-0.009019613265991211,0.016861319541931152,-0.8306020498275757,-0.05393015965819359,-0.01884150505065918,0.15781636536121368,0.9375777840614319,-0.3099064826965332,0.47101117734056663,-1.215598693411135,0.4308826319451797,
16:30:02,0.029646456241607666,-0.0035933852195739746,0.1580941081047058,-0.48732757568359375,0.1532565802335739,-0.1768053025007248,0.14694344997406006,0.9545512795448303,-0.2593059539794922,0.5155589632986244,-1.268150519879054,0.46925553528880815,
16:30:02,-0.004242956638336182,0.20347726345062256,0.15333735942840576,-0.4757228195667267,0.041886910796165466,-0.23725134134292603,0.13420192897319794,0.9739815592765808,-0.18261975049972534,0.6337479162268446,-1.3421828851544784,0.5788763041785859,
16:30:02,0.004828423261642456,0.016576111316680908,0.10263192653656006,0.5224842429161072,-0.13550837337970734,-0.013177228160202503,0.1292809545993805,0.9744203090667725,-0.18382468819618225,0.6129265737682514,-1.3441271171776108,0.560251029779381,
16:30:02,0.05648680031299591,0.07893556356430054,0.0376703143119812,0.41549152135849,-0.12576307356357574,-0.07186930626630783,0.13173016905784607,0.9702420830726624,-0.2031683325767517,0.5752351361586993,-1.3262287069630534,0.5363335285516141,
16:30:02,-0.002359911799430847,-0.04719656705856323,0.10983633995056152,0.052893079817295074,-0.15976737439632416,-0.07072627544403076,0.12801586091518402,0.9653165936470032,-0.2275436669588089,0.5124647198215295,-1.306653333118121,0.4787666111385754,
16:30:03,-0.12195650488138199,-0.05025649070739746,-0.006429135799407959,-0.1824009269475937,-0.12451644986867905,0.11579407006502151,0.12493176013231277,0.9724197387695312,-0.19695667922496796,0.5652667702052243,-1.3353903221107721,0.5462583625874476,
16:30:03,0.020561933517456055,-0.004578709602355957,-0.02654111385345459,0.3511042594909668,0.044838495552539825,0.4371875524520874,0.12909597158432007,0.9672839045524597,-0.21839472651481628,0.5338593308533741,-1.3142966303510135,0.5201614333550897,
16:30:03,0.09589247405529022,0.01086580753326416,0.06421923637390137,-0.008382795378565788,0.15511786937713623,-0.009332156740128994,0.15384770929813385,0.9619709849357605,-0.225705087184906,0.5982915033069632,-1.294128590096556,0.5727673460184497,
16:30:03,-0.020446553826332092,-0.04301851987838745,0.04611611366271973,0.1133766621351242,-0.2290354073047638,-0.37303340435028076,0.1601557582616806,0.9512353539466858,-0.2636313736438751,0.5459151371338551,-1.2572162743090416,0.5130030868109932,
16:30:03,0.022582978010177612,-0.007150769233703613,0.0012370944023132324,-0.24255481362342834,-0.16240283846855164,0.12049295008182526,0.16647319495677948,0.9527823328971863,-0.2539542019367218,0.5802490722474116,-1.2622708674211884,0.5537329484458312,
16:30:03,0.007894635200500488,0.0165746808052063,0.040863752365112305,0.3230947256088257,-0.0017441902309656143,-0.09332959353923798,0.1709381341934204,0.9538677334785461,-0.24681265652179718,0.6057304367550604,-1.2658655361014224,0.5931645957356853,
16:30:03,0.010168731212615967,-0.016934096813201904,0.0011530518531799316,0.24594321846961975,-0.00514131598174572,-0.2685072720050812,0.15496176481246948,0.9503440260887146,-0.2698761820793152,0.5212296543705601,-1.254339422857148,0.5045522046414788,
16:30:03,0.05410407483577728,0.001979351043701172,0.05035591125488281,-0.25494250655174255,-0.19915367662906647,0.12381525337696075,0.15581096708774567,0.950427770614624,-0.2690912187099457,0.5248550749127651,-1.2546086976879873,0.5167803865103305,
16:30:03,0.037151604890823364,0.07786017656326294,-0.042958199977874756,-0.5300779342651367,-0.13599920272827148,-0.06328673660755157,0.15776409208774567,0.9614155888557434,-0.22536787390708923,0.6107455429247268,-1.292102455206253,0.6264695046181086,
16:30:03,-0.016175419092178345,-0.1539013385772705,0.12011754512786865,0.14542807638645172,-0.04017147421836853,0.16122201085090637,0.16153059899806976,0.9622659683227539,-0.21897941827774048,0.6355514024819868,-1.2952104888206017,0.6582477185402054,
16:30:04,0.10371050238609314,-0.2668706774711609,-0.014146924018859863,0.0077767325565218925,-0.03234657272696495,-0.062030255794525146,0.1711917668581009,0.95835280418396,-0.228590190410614,0.6427983400157706,-1.2811775871076094,0.6642193670770883,
16:30:04,-0.006149858236312866,0.025991737842559814,0.037620365619659424,0.5632109045982361,-0.001693587750196457,0.3257339894771576,0.1878819614648819,0.9527676105499268,-0.2386094182729721,0.6670129867981613,-1.262222396928449,0.6925826462135051,
16:30:04,0.022293582558631897,0.01569652557373047,0.020998775959014893,-0.00815030187368393,0.02633058838546276,-0.05408843979239464,0.19412177801132202,0.9470717906951904,-0.2556791305541992,0.6493884171747194,-1.2439881128653603,0.6730658062009494,
16:30:04,-0.01833704113960266,0.024329543113708496,0.0013659000396728516,0.10733740776777267,0.250814288854599,-0.20973289012908936,0.16132698953151703,0.9477764964103699,-0.27512457966804504,0.5303431002803753,-1.2461905206809094,0.5441079114229821,97
16:30:04,0.004385948181152344,0.03991901874542236,0.05117809772491455,0.20138587057590485,-0.042540088295936584,0.10166040807962418,0.17491982877254486,0.9496426582336426,-0.25996512174606323,0.5922772350553773,-1.2520935479148212,0.6047662659793583,97
16:30:04,-0.09436625242233276,0.21791034936904907,0.12247681617736816,0.08579723536968231,-0.11042726039886475,-0.22048301994800568,0.16467851400375366,0.9534446001052856,-0.25263532996177673,0.5776696103510287,-1.2644592931819039,0.6055008456708812,97
16:30:04,-0.045825451612472534,0.020970821380615234,-0.1276358962059021,-0.10868597030639648,-0.05105394870042801,0.11257830262184143,0.1676972210407257,0.9466490745544434,-0.2751968801021576,0.5472820865690342,-1.242673885400786,0.5783136435096462,97
16:30:04,-0.05267395079135895,0.037322402000427246,-0.014383673667907715,-0.11180399358272552,0.03708762675523758,0.17637325823307037,0.17845192551612854,0.9489588141441345,-0.2600618004798889,0.6013975868985088,-1.2499181450325232,0.6338106213792076,97
16:30:04,-0.0012288540601730347,-0.023541808128356934,-0.0036756396293640137,-0.02549120783805847,-0.015262128785252571,0.043536119163036346,0.18795043230056763,0.9471703767776489,-0.2598903179168701,0.6261216486771867,-1.244295335847794,0.6585018118254742,97
16:30:04,-0.0015228688716888428,-5.0067901611328125e-05,0.013857543468475342,0.17823101580142975,0.003031390719115734,0.017457379028201103,0.19054847955703735,0.9461547136306763,-0.2616918385028839,0.6293637735940001,-1.241143345172728,0.6626937831886323,97
16:30:05,-0.00044374167919158936,0.012978315353393555,0.02354186773300171,0.16781353950500488,0.011637130752205849,-0.024758251383900642,0.19137674570083618,0.9443874359130859,-0.26740869879722595,0.6211664072241717,-1.2357267985091493,0.6559281816081847,97
16:30:05,-0.000951230525970459,-0.011790692806243896,0.0050931572914123535,-0.22583521902561188,-0.053309109061956406,0.08397116512060165,0.19255557656288147,0.9442387223243713,-0.2670876085758209,0.6246453923812546,-1.235274815357255,0.6631809846878697,97
16:30:05,-0.09526462852954865,0.03810620307922363,-0.0043901801109313965,0.14028124511241913,0.09717999398708344,-0.06122970953583717,0.18271245062351227,0.9451839327812195,-0.2706353962421417,0.5938348653503381,-1.238157348645289,0.6290684508192614,97
16:30:05,0.0003128349781036377,-0.0009184479713439941,0.01502007246017456,0.12741312384605408,-0.0646030455827713,0.13200846314430237,0.19228345155715942,0.9407217502593994,-0.2794096767902374,0.6027472822699317,-1.224752019381644,0.6454682879078145,97
16:30:05,-0.001155063509941101,-0.006849169731140137,0.009997785091400146,-0.03805041313171387,-0.0399637445807457,0.05671903118491173,0.19825275242328644,0.9383673071861267,-0.283130407333374,0.610871618735617,-1.217875857116787,0.6588120395866811,97
16:30:05,-0.002578556537628174,-0.011210203170776367,0.0047650933265686035,0.02812727726995945,0.03125637024641037,-0.017918454483151436,0.19778402149677277,0.9373717904090881,-0.28673306107521057,0.6038369599276211,-1.215006797341892,0.6524125678221125,97
16:30:05,-0.002357691526412964,-0.0005067586898803711,0.010936081409454346,-0.024864034727215767,0.047166094183921814,0.007873461581766605,0.19699841737747192,0.9378980994224548,-0.28554993867874146,0.6039093311046626,-1.216520972265291,0.6491034447810548,97
16:30:05,-0.00022883713245391846,-0.007158517837524414,0.006161868572235107,-0.22308684885501862,0.03385108709335327,-0.0071739312261343,0.1977839469909668,0.9406282305717468,-0.27586257457733154,0.6220216706786177,-1.2244763739808011,0.6647825815592823,97
16:30:05,0.0021663904190063477,-0.001694023609161377,0.0065569281578063965,-0.1246287077665329,0.061791643500328064,0.048389725387096405,0.2001953274011612,0.9439379572868347,-0.262493759393692,0.6515588122782464,-1.2343624600302623,0.6887281826306161,97
16:30:05,-0.0006271898746490479,-0.0028591156005859375,0.010876953601837158,0.004631273448467255,0.04710298031568527,-0.0007016509771347046,0.2033703774213791,0.945545494556427,-0.2541339099407196,0.6748926888257699,-1.2392664571147893,0.7082563667427054,97
16:30:06,0.00010100007057189941,-0.009119272232055664,0.004305541515350342,0.04218930006027222,0.027427012100815773,0.0243682824075222,0.20670118927955627,0.9430325627326965,-0.26069971919059753,0.670378699349484,-1.2316305641862908,0.6994597766836755,97
16:30:06,0.0053047239780426025,-0.013818025588989258,0.0032387971878051758,0.003119397908449173,-0.025074543431401253,0.009451651945710182,0.20940135419368744,0.9413983225822449,-0.2644246518611908,0.6697904301413721,-1.2267522521606014,0.6989785844756559,97
16:30:06,0.014284655451774597,-0.02852487564086914,0.0029064416885375977,0.04250994697213173,0.04857650399208069,-0.07713543623685837,0.2053501158952713,0.9423878788948059,-0.26407673954963684,0.6609419143961848,-1.2296981913694505,0.6856779424033131,97
16:30:06,-0.0005901455879211426,-0.007224678993225098,0.005015075206756592,0.04413527250289917,0.06688520312309265,-0.10476174205541611,0.1975962221622467,0.943106472492218,-0.26740577816963196,0.6363835703898348,-1.2318529227684953,0.6513265548906425,97
16:30:06,-0.004052400588989258,-0.00687485933303833,0.005718588829040527,0.10669984668493271,0.009129498153924942,-0.0365949384868145,0.19274258613586426,0.9427574276924133,-0.27213701605796814,0.6162451954883527,-1.2308045459007173,0.6271730236992457,97
16:30:06,-0.007929831743240356,-0.027170956134796143,-0.009818613529205322,0.07129738479852676,-0.06336840987205505,0.11532668769359589,0.19245445728302002,0.9391434192657471,-0.2845536768436432,0.5946682582561964,-1.2201282270310971,0.6046299680114228,97
16:30:06,0.002821877598762512,-0.017054200172424316,0.0013287067413330078,0.019505294039845467,-0.15383705496788025,0.038401808589696884,0.19688546657562256,0.9363824725151062,-0.2905579209327698,0.5955417540636792,-1.2121775433319522,0.6151986317141639,97
16:30:06,-0.0010550618171691895,-0.014140844345092773,-0.002140939235687256,0.0023670531809329987,-0.02874011918902397,-0.025661859661340714,0.1949489265680313,0.9344767332077026,-0.2979063093662262,0.5794598823327494,-1.2067864625914826,0.6041243458099774,97
16:30:06,0.000289037823677063,-0.021155118942260742,-0.0035892724990844727,-0.02277398481965065,-0.017733806744217873,0.022944290190935135,0.19850291311740875,0.9351281523704529,-0.2934825122356415,0.5946905655132495,-1.208620606530393,0.6190299271842128,97
16:30:06,0.003731459379196167,0.0023426413536071777,0.009415030479431152,-0.2238306701183319,-0.015295682474970818,0.034730106592178345,0.20218642055988312,0.9384862184524536,-0.2799362540245056,0.6255090504178525,-1.2182200661707967,0.6500816200588511,97
16:30:07,-0.006732285022735596,-0.029225945472717285,-0.012562155723571777,-0.08938124775886536,-0.038632430136203766,0.0508723258972168,0.20352546870708466,0.9382709860801697,-0.27968743443489075,0.629068487319187,-1.217597284154963,0.6556530524212169,97
16:30:07,-0.0006606131792068481,-0.019120454788208008,-0.0034818649291992188,-0.5030723810195923,-0.12538835406303406,0.0142474714666605,0.2059834748506546,0.9456827044487,-0.251505583524704,0.6862203622813751,-1.2396882277407195,0.7242691758313881,97
16:30:07,-0.0016595721244812012,0.022878587245941162,0.026798546314239502,-0.2168518453836441,-0.006550928577780724,-0.022119589149951935,0.19961237907409668,0.9529693722724915,-0.22804465889930725,0.7190120190902844,-1.2628872969689036,0.7635034197816742,97
16:30:07,-0.0009541511535644531,-0.002772092819213867,0.01613914966583252,0.005853397771716118,0.037362467497587204,-0.0008217592258006334,0.19991420209407806,0.9555951952934265,-0.21649962663650513,0.7455900213662114,-1.2716729918273009,0.7897095492011037,97
16:30:07,0.00243300199508667,-0.010972261428833008,0.0029178857803344727,0.17902864515781403,0.029798025265336037,0.04922489449381828,0.20459891855716705,0.9521375298500061,-0.2270975112915039,0.7333285885039461,-1.2601544148035888,0.7721244306803101,97
16:30:07,0.0036512762308120728,-0.009597539901733398,0.002642691135406494,-0.049164846539497375,0.05472734197974205,-0.08999131619930267,0.2029230147600174,0.951266884803772,-0.23219293355941772,0.7182301038283863,-1.257318571387822,0.7538964741411309,97
16:30:07,-0.009579747915267944,-0.02845597267150879,-0.00985032320022583,-0.18102967739105225,-0.015387563034892082,0.12771090865135193,0.1980724185705185,0.9529900550842285,-0.22929739952087402,0.7124646262726236,-1.2629556587579294,0.7404937439239246,97
16:30:07,0.0024733692407608032,-0.014959275722503662,-0.0027477145195007324,0.19727155566215515,-0.008253753185272217,0.050007063895463943,0.2130577713251114,0.9473813772201538,-0.23890307545661926,0.728275541170402,-1.2449539262537535,0.75977506553122,97
16:30:07,-0.0020513981580734253,-0.009240686893463135,0.006803929805755615,0.04560001194477081,0.02271774411201477,-0.042281318455934525,0.2131117284297943,0.9460421800613403,-0.24410594999790192,0.7177129459091011,-1.2407957804020877,0.7467578509653934,97
16:30:07,-0.002431511878967285,-0.01924973726272583,-0.000431060791015625,0.18186303973197937,0.03853479027748108,-0.06324492394924164,0.20973815023899078,0.9433864951133728,-0.25696682929992676,0.6845455086762701,-1.232695970152297,0.7088002165135491,97
16:30:08,0.001669570803642273,-0.0007004141807556152,0.010832667350769043,0.18125185370445251,0.06077990680932999,-0.0993746966123581,0.20510311424732208,0.941973090171814,-0.26574304699897766,0.6573139256895586,-1.2284604515491722,0.675832539066879,97
16:30:08,0.0006875693798065186,-0.004294097423553467,0.008824944496154785,0.10490886867046356,0.021471917629241943,0.009467896074056625,0.20466604828834534,0.9406841993331909,-0.27060166001319885,0.6475444919742133,-1.2246412265667637,0.6634244763966025,97
16:30:08,-0.001308351755142212,-0.006480991840362549,0.008211314678192139,0.08636288344860077,0.007930809631943703,0.017903991043567657,0.20817254483699799,0.9389644265174866,-0.27387937903404236,0.6499265124713136,-1.2196075550974315,0.6659597693925127,97
16:30:08,0.0010067224502563477,-0.00011229515075683594,0.012408316135406494,0.14989525079727173,0.01754908077418804,0.027458349242806435,0.21128949522972107,0.9360435605049133,-0.28138795495033264,0.644066124789002,-1.2112131706529607,0.6589637312533385,97
16:30:08,-0.003635913133621216,-0.007544577121734619,0.005137264728546143,0.05316445603966713,0.026304224506020546,0.030324440449476242,0.21213264763355255,0.9337254762649536,-0.28836873173713684,0.6342406073438165,-1.2046820945188086,0.6474629577368668,97
16:30:08,0.003473341464996338,-0.04359567165374756,-0.010229051113128662,-0.026515992358326912,-0.0373929962515831,0.02278689667582512,0.21111159026622772,0.9331093430519104,-0.291099488735199,0.62745331092918,-1.2029649762299797,0.6371722762611184,97
16:30:08,0.0011733323335647583,-0.025169074535369873,-0.006939351558685303,0.02675681561231613,-0.049760181456804276,0.06359824538230896,0.21879814565181732,0.9298813343048096,-0.29571616649627686,0.6370008022048963,-1.1940901195104898,0.6507369705472738,97
16:30:08,-0.0011613070964813232,-0.012505114078521729,0.002223074436187744,-9.157694876194e-05,-0.00803644023835659,-0.02419925481081009,0.21809616684913635,0.9299273490905762,-0.29608994722366333,0.6348617363058672,-1.1942152365028214,0.6513492228705928,97
16:30:08,0.0011660456657409668,-0.014570057392120361,0.0025271177291870117,-0.007360674440860748,0.008015497587621212,-0.024051446467638016,0.21872903406620026,0.9295356869697571,-0.2968517243862152,0.6350183888921719,-1.19315166738623,0.6516985861535469,97
16:30:08,0.006096154451370239,-0.017489254474639893,0.002838313579559326,-0.021126287057995796,0.022792046889662743,-0.08797930181026459,0.21819345653057098,0.9309747815132141,-0.2927074432373047,0.6405710928551943,-1.1970737902037445,0.6555700726178387,97
16:30:09,-0.027467355132102966,-0.02438277006149292,-0.010745823383331299,-0.20759549736976624,0.04340784251689911,0.11026055365800858,0.20810148119926453,0.934419572353363,-0.28905683755874634,0.6239787290006724,-1.206625891611423,0.6358261304968509,97
16:30:09,-0.21322640776634216,0.1358637809753418,0.0014810562133789062,-0.2487381398677826,0.12346991896629333,-0.7698875665664673,0.2002112865447998,0.9432560205459595,-0.26492172479629517,0.6471630103935813,-1.2323029772781877,0.671893295890628,97
16:30:09,0.034184783697128296,-0.17495667934417725,0.03974813222885132,-0.26881492137908936,0.12495890259742737,-0.21911627054214478,0.1655837744474411,0.9553549885749817,-0.24470198154449463,0.5948996400472935,-1.2708588389228541,0.6189982849718436,97
16:30:09,0.02651970088481903,-0.06894940137863159,0.08738350868225098,0.07799896597862244,0.02337155118584633,0.1730746626853943,0.17787231504917145,0.9607674479484558,-0.21280832588672638,0.6962119416683887,-1.2897561279147085,0.7228874243215786,97
16:30:09,-0.019652575254440308,-0.06695032119750977,0.018996059894561768,0.18817900121212006,-0.03876585513353348,-0.0047203609719872475,0.18135060369968414,0.9594556093215942,-0.21577054262161255,0.6989405922736607,-1.2850643570992772,0.7309204676889365,97
16:30:09,-0.01058468222618103,0.0007851719856262207,-0.010113954544067383,0.152282252907753,0.0798255056142807,0.12851811945438385,0.18595455586910248,0.9492912292480469,-0.25350967049598694,0.6328705948410197,-1.2509737973348631,0.6577431922139868,97
16:30:09,0.003954976797103882,0.027926623821258545,0.040696799755096436,0.14979565143585205,-0.012254886329174042,0.19905753433704376,0.20982122421264648,0.9440608024597168,-0.2544093728065491,0.6896444625248459,-1.2347349439646047,0.7104093104467158,97
16:30:09,-0.03728678822517395,-0.04167520999908447,0.00801008939743042,-0.1248345822095871,-0.09564751386642456,-0.22066010534763336,0.2206980586051941,0.9339813590049744,-0.28101828694343567,0.6657447171716422,-1.2053975571228606,0.6893396764533686,97
16:30:09,-0.0005064457654953003,-0.0060558319091796875,-0.004614353179931641,-0.028597520664334297,-0.03990542143583298,-0.00623836275190115,0.21538135409355164,0.9356850981712341,-0.27947157621383667,0.6566014500804656,-1.2101958444386356,0.6796191632678471,97
16:30:09,-0.00882759690284729,-0.01373291015625,0.001015782356262207,0.12578965723514557,0.02012622356414795,0.002145801205188036,0.21340283751487732,0.9345273971557617,-0.2848118245601654,0.6430379896247802,-1.206928809322391,0.6658955507283094,97
16:30:10,-0.007296890020370483,-0.01764070987701416,0.006072878837585449,-0.03550895303487778,0.02133449912071228,-0.027376938611268997,0.21377934515476227,0.9349861145019531,-0.28301817178726196,0.6469198722182372,-1.208219986996095,0.6702101405861653,97
16:30:10,0.006930679082870483,-0.00594484806060791,0.006431877613067627,-0.16118165850639343,0.19060048460960388,-0.027661096304655075,0.2215549796819687,0.9365044832229614,-0.2717956006526947,0.6839125117609672,-1.2125253365248188,0.6955289307551367,97
16:30:10,-0.004517585039138794,0.0016526579856872559,0.009365379810333252,-0.03758782148361206,0.012988418340682983,-0.05050595849752426,0.20585769414901733,0.9430208206176758,-0.26140859723091125,0.6670686468129458,-1.2315952887239983,0.6569294037518559,97
16:30:10,0.0028758198022842407,0.02111971378326416,0.028972625732421875,0.3166336417198181,-0.09454842656850815,0.25081926584243774,0.21941474080085754,0.94017094373703,-0.2606450021266937,0.6997227134476354,-1.2231317570860747,0.6936173038881295,97
16:30:10,-0.0019835829734802246,0.023375630378723145,0.03493982553482056,-0.024176141247153282,-0.03985908254981041,0.0300152488052845,0.2246861457824707,0.9398376941680908,-0.2573349177837372,0.7177683646580338,-1.222154923307139,0.7204867100431332,97
16:30:10,-0.0015070736408233643,0.001101672649383545,0.010238409042358398,0.0037580225616693497,-0.02276505157351494,0.0494331531226635,0.22842104732990265,0.9372548460960388,-0.26339536905288696,0.7144051497092999,-1.2146713572688594,0.7194022493700478,97
16:30:10,-0.00496673583984375,-0.004154205322265625,0.01035308837890625,-0.01807457022368908,-0.004409214481711388,0.03640870004892349,0.22994264960289001,0.9361470937728882,-0.26599785685539246,0.7128251691764725,-1.2115074054386157,0.7206750497397562,97
16:30:10,-0.0031669139862060547,-0.008363664150238037,0.007752954959869385,-0.06188783794641495,-0.04102341830730438,0.012004024349153042,0.23209479451179504,0.9359465837478638,-0.26483216881752014,0.719613592723745,-1.2109375493177543,0.7316075332950915,97
16:30:10,-0.0003320276737213135,-0.007086992263793945,0.00751107931137085,0.025768250226974487,-0.033578015863895416,-0.03429795801639557,0.23072455823421478,0.9366375207901001,-0.26358380913734436,0.7190206016099566,-1.2129047907521768,0.7351587715134242,97
16:30:10,0.002428889274597168,-0.008633971214294434,0.008166491985321045,-0.018064184114336967,-0.010302789509296417,-0.04960421472787857,0.2279483824968338,0.9376809597015381,-0.26228606700897217,0.7154689978542224,-1.2158955357645693,0.7338947429790467,97
16:30:11,-0.0019787102937698364,0.002400636672973633,0.01719444990158081,0.05934645235538483,-0.011771522462368011,0.01665150746703148,0.22584035992622375,0.9393258094787598,-0.258191853761673,0.7186599398413511,-1.2206595782057386,0.7392042594337354,97
16:30:11,0.0006062686443328857,-0.0043662190437316895,0.012966394424438477,-0.07431014627218246,0.0018231160938739777,0.031840577721595764,0.22671912610530853,0.9397450089454651,-0.2558864951133728,0.7250343276758946,-1.2218836140408433,0.748353983281741,97
16:30:11,0.001299530267715454,-0.008174002170562744,0.008084535598754883,0.08243925124406815,0.03372885286808014,-0.047166887670755386,0.2275822013616562,0.9381968379020691,-0.26075512170791626,0.7175720197074565,-1.2173830408024213,0.7402705830737133,97
16:30:11,0.010803863406181335,0.011075913906097412,0.02358865737915039,0.40669429302215576,0.08425327390432358,-0.273156076669693,0.22097714245319366,0.9360828995704651,-0.2737107574939728,0.6791994204053405,-1.2113249615144732,0.6919908072106037,97
16:30:11,-0.03883028030395508,-5.65648078918457e-05,0.0010576248168945312,-0.33598223328590393,-0.01332334615290165,0.3426235020160675,0.19517183303833008,0.9403489232063293,-0.27866077423095703,0.6109891416365906,-1.223654531569843,0.61356799765019,97
16:30:11,0.013100951910018921,0.010961294174194336,0.03587526082992554,0.11489120125770569,-0.01758520118892193,-0.09744763374328613,0.21547575294971466,0.9429421424865723,-0.2538316249847412,0.703850740645947,-1.2313589463888226,0.7202630408082185,97
16:30:11,0.0011502504348754883,-0.03623497486114502,0.00036770105361938477,-0.017623433843255043,-0.0326262041926384,0.08694591373205185,0.20183739066123962,0.9422711133956909,-0.26718297600746155,0.6469657064570846,-1.2293493781774172,0.6600071997957495,97
16:30:11,-0.0010655224323272705,0.0020849108695983887,0.015758872032165527,0.08429520577192307,0.01143100205808878,0.07606370002031326,0.22009018063545227,0.9382074475288391,-0.26707109808921814,0.6892573339056866,-1.2174136891384504,0.7091284062617941,97
16:30:11,0.006685435771942139,0.004370272159576416,0.017158865928649902,0.1309487372636795,0.06324679404497147,-0.1825987547636032,0.2192974090576172,0.9354650974273682,-0.2771528363227844,0.6693832335688696,-1.2095728428431016,0.6832004308106527,97
16:30:11,-0.008649677038192749,0.005118310451507568,0.016675174236297607,-0.2631751298904419,-0.01580221764743328,0.30237671732902527,0.21258360147476196,0.9347171783447266,-0.2848018705844879,0.6412100298481508,-1.2074624516574954,0.64856918663802,97
16:30:12,-0.0023652762174606323,-0.005506038665771484,0.004464089870452881,-0.05314946919679642,-0.02998434752225876,0.002393208909779787,0.2177281230688095,0.932677149772644,-0.2875899076461792,0.6480159337906599,-1.2017648745197114,0.6600430731788144,97
16:30:12,0.005005508661270142,0.0008327364921569824,0.014572560787200928,0.05176469683647156,-0.04101702570915222,0.03207200765609741,0.21713212132453918,0.9336467385292053,-0.28488147258758545,0.6512534372401093,-1.2044623361284315,0.6642743361241028,97
16:30:12,-0.0023405104875564575,0.003316938877105713,0.013364553451538086,-0.015420464798808098,-0.028817616403102875,0.019194025546312332,0.21951903402805328,0.9350535869598389,-0.2783633768558502,0.6677546912425347,-1.2084102539576187,0.6844638810692094,97
16:30:12,0.0010093450546264648,-0.0011844038963317871,0.017233073711395264,-0.023515408858656883,-0.006817776709794998,-0.013197468593716621,0.22248631715774536,0.9361064434051514,-0.2724052369594574,0.6848697587504838,-1.2113917993428376,0.7045961420051855,97
16:30:12,0.009007036685943604,0.007432878017425537,0.021998286247253418,0.15690656006336212,0.029200945049524307,-0.28957048058509827,0.21345099806785583,0.9382465481758118,-0.27227234840393066,0.664884477358633,-1.2175266280562205,0.6815737774258923,97
16:30:12,0.0016343891620635986,0.0106431245803833,0.02543729543685913,0.10311097651720047,-0.024262545630335808,0.12286023050546646,0.21682588756084442,0.9384390711784363,-0.26892122626304626,0.6785586602031841,-1.2180836700378073,0.6947692266812844,97
16:30:12,-0.0033575892448425293,-0.011541426181793213,0.002597630023956299,0.041935503482818604,0.1411684900522232,0.059412550181150436,0.22503754496574402,0.934760332107544,-0.27492037415504456,0.6859532308073413,-1.2075838263986325,0.6969766861411163,97
16:30:12,0.008517950773239136,-0.0074124932289123535,0.003803551197052002,-0.010959671810269356,0.19690711796283722,-0.16862060129642487,0.2264067381620407,0.9345685839653015,-0.2744475305080414,0.6897729860476988,-1.2070445115806776,0.6829517943022775,97
16:30:12,-0.016563624143600464,-0.002850830554962158,0.006277680397033691,0.008885406889021397,0.0016984790563583374,0.036357298493385315,0.21404318511486053,0.939711332321167,-0.26669842004776,0.6763038535004796,-1.2217852646487692,0.6562101610064992,97
16:30:12,0.0010097324848175049,-0.030593156814575195,-0.009535133838653564,-0.028520820662379265,-0.06689175963401794,0.07213101536035538,0.23060373961925507,0.9342657923698425,-0.27197325229644775,0.7032685596027372,-1.2061944026560822,0.6938752818053495,97
16:30:13,0.003046095371246338,-0.00034117698669433594,0.016688823699951172,0.10485187917947769,-0.1342976987361908,-0.01981675624847412,0.23172622919082642,0.9347766041755676,-0.26925045251846313,0.7106356450152532,-1.207629598637912,0.7123011173987828,97
16:30:13,-0.0012427866458892822,-0.015367269515991211,0.0013239383697509766,-0.003351818770170212,-0.10238717496395111,0.017233140766620636,0.22740933299064636,0.9322558045387268,-0.2813965678215027,0.6796879222654109,-1.2005986134571356,0.6908090070028537,97
16:30:13,-0.005828768014907837,-0.017870545387268066,0.0005060434341430664,0.12495981156826019,0.011609166860580444,-0.026982787996530533,0.22569380700588226,0.9298930764198303,-0.29044994711875916,0.6605888327866724,-1.1941219815650392,0.6780216422158144,97
16:30:13,0.0015239715576171875,-0.00739055871963501,0.01091986894607544,0.012151506729424,-0.012827998027205467,-0.02191532775759697,0.223147451877594,0.9306430220603943,-0.29001519083976746,0.6558231015692152,-1.1961661592774313,0.6732781366748394,97
16:30:13,-0.0048739612102508545,-0.003634512424468994,0.008884549140930176,-0.00025482848286628723,0.00914387870579958,-0.00831536203622818,0.21927620470523834,0.9303202033042908,-0.29397663474082947,0.6408698242645593,-1.1952848959759046,0.6570453506570519,97
16:30:13,0.0020845532417297363,-0.015411794185638428,0.0014916062355041504,-0.06087343394756317,0.012657653540372849,0.03195030242204666,0.22075563669204712,0.9294015169143677,-0.29576990008354187,0.6411779136584521,-1.192787974388171,0.6568972836197765,97
16:30:13,-0.00243222713470459,-0.01402890682220459,0.0038170814514160156,-0.020290056243538857,0.006646633148193359,0.02200179733335972,0.22180859744548798,0.92948317527771,-0.2947234809398651,0.6451623901714002,-1.19300928490096,0.6605579160926491,97
16:30:13,-9.208917617797852e-05,-0.018514692783355713,-0.0010924935340881348,-0.07149305939674377,-0.015388362109661102,0.00023045577108860016,0.22148258984088898,0.9295742511749268,-0.294681578874588,0.6445241452177308,-1.193256146129702,0.6599395512867898,97
16:30:13,0.0005271732807159424,-0.017304956912994385,-7.742643356323242e-05,0.044961117208004,-0.012885522097349167,-0.0038958461955189705,0.22035962343215942,0.9298286437988281,-0.2947206497192383,0.6420209427477341,-1.1939469807344165,0.6580513132465752,97
16:30:13,-0.0030702054500579834,-0.0009594559669494629,0.013560950756072998,0.04898941516876221,-0.00683135911822319,-0.030441703274846077,0.21840272843837738,0.9310610294342041,-0.29227641224861145,0.6417369781638935,-1.1973101968688724,0.6580653631702609,97
16:30:14,0.0009537339210510254,0.003970205783843994,0.02129262685775757,0.06074514240026474,0.010295430198311806,0.008389316499233246,0.21770524978637695,0.9329369068145752,-0.2867633104324341,0.6493510737090045,-1.2024857151664097,0.6666732926989786,97
16:30:14,-0.0018722116947174072,0.009065806865692139,0.017797768115997314,0.026422854512929916,0.011596384458243847,0.012155025266110897,0.21709783375263214,0.9332424998283386,-0.28622910380363464,0.6489035387214602,-1.203335356990055,0.666262125653458,97
16:30:14,0.00042435526847839355,0.000559687614440918,0.014758408069610596,0.03018430434167385,-0.005712565034627914,-0.0012848831247538328,0.21824972331523895,0.933905303478241,-0.28317463397979736,0.6566336181835856,-1.2051848550180893,0.6748012281730352,97
16:30:14,0.0029151886701583862,0.000865936279296875,0.020737946033477783,0.04770417511463165,-0.0031649861484766006,-0.025559064000844955,0.2191309779882431,0.9345600008964539,-0.28031960129737854,0.6634937334042936,-1.2070205009081474,0.6830658836817343,97
16:30:14,-0.006824135780334473,0.02272135019302368,0.03535938262939453,-0.20134693384170532,0.021547818556427956,0.011981653980910778,0.21632753312587738,0.939041018486023,-0.2672159969806671,0.6805434130299003,-1.21983028017,0.7045688884539226,97
16:30:14,0.0038987696170806885,-0.0059937238693237305,0.015358507633209229,-0.013771969825029373,0.06547719240188599,-0.08511187136173248,0.2121809870004654,0.9403964281082153,-0.26577040553092957,0.6737413613930858,-1.2237940980874233,0.693828365145318,97
16:30:14,-0.0017764866352081299,-0.009985744953155518,0.007410585880279541,-0.003638908267021179,0.04230982065200806,-0.02131025493144989,0.2027500867843628,0.9404975175857544,-0.27268436551094055,0.639349997420131,-1.2240914719190168,0.6504149410684305,97
16:30:14,-0.0023530572652816772,-0.025816261768341064,-0.0016860365867614746,0.07342977821826935,0.04096412658691406,-0.016780219972133636,0.20106826722621918,0.9373000264167786,-0.284675657749176,0.6149459874030797,-1.2148009308265573,0.6180073409075798,97
16:30:14,-0.007009908556938171,0.14783895015716553,0.003468930721282959,0.21814435720443726,0.14026302099227905,-0.09870917350053787,0.19759218394756317,0.935580849647522,-0.29265350103378296,0.5938695462306907,-1.2099003729470552,0.5888190980798907,97
16:30:14,-0.0007095783948898315,-0.05583161115646362,-0.013565599918365479,0.2581189274787903,0.17269764840602875,-0.4047772288322449,0.17278286814689636,0.9326469898223877,-0.3167264461517334,0.4994026576724634,-1.2016812272406834,0.46996308465754794,97
16:30:15,-0.012092560529708862,0.10874217748641968,-0.03253430128097534,-0.32027196884155273,-0.17880630493164062,0.32524290680885315,0.18338759243488312,0.9370792508125305,-0.2970713675022125,0.55305632323567,-1.2141679897348072,0.5319011664676031,97
16:30:15,0.018409430980682373,0.02372729778289795,0.0809863805770874,-0.14524078369140625,-0.011474313214421272,-0.06480606645345688,0.20372794568538666,0.9509884715080261,-0.23262850940227509,0.7192631930175297,-1.256416992853258,0.7206002439614585,97
16:30:15,-0.024687737226486206,-0.047238171100616455,-0.019650638103485107,-0.2934752404689789,-0.09784728288650513,0.26419687271118164,0.19221390783786774,0.9526790380477905,-0.23549187183380127,0.6845550992212307,-1.261930768392108,0.6863894766389733,97
16:30:15,-0.011270642280578613,0.04630303382873535,0.0373041033744812,-0.195973202586174,-0.04474891722202301,0.05127179995179176,0.21386143565177917,0.9544286131858826,-0.20815734565258026,0.7989135528591429,-1.2677392824059326,0.8178853303835545,97
16:30:15,0.02169966697692871,-0.07586133480072021,-0.019122838973999023,-0.20443220436573029,-0.031426720321178436,0.13132083415985107,0.1914503574371338,0.9563392400741577,-0.22082164883613586,0.7142758522405217,-1.2742082837093136,0.7257461597106832,97
16:30:15,-0.004039734601974487,-0.0058727264404296875,0.01720750331878662,0.14474231004714966,0.057760149240493774,0.13801603019237518,0.2108420431613922,0.9537943005561829,-0.21406129002571106,0.7778219098179823,-1.2656209727854733,0.7927082978353415,97
16:30:15,-0.016560137271881104,0.010428786277770996,0.02355051040649414,0.008354904130101204,0.07516177743673325,0.0878942608833313,0.2178693264722824,0.952644944190979,-0.21213386952877045,0.7987355513268141,-1.2618186971515086,0.8079800562672536,97
16:30:15,-0.0057852864265441895,-0.011166274547576904,0.009945213794708252,0.0689021423459053,0.0763053372502327,0.0477532334625721,0.22790774703025818,0.9493388533592224,-0.21636520326137543,0.8113730912968666,-1.2511252289990578,0.8160201190438128,97
16:30:15,0.01053464412689209,-0.016935765743255615,0.0032749176025390625,0.02945166826248169,0.18824943900108337,-0.1712731271982193,0.23229414224624634,0.9483034610748291,-0.21624049544334412,0.8211742253676897,-1.2478467809852765,0.8147346355841757,97
16:30:15,-0.011072129011154175,-0.013803243637084961,0.0012930035591125488,-0.068619504570961,-0.02301991730928421,0.14054548740386963,0.22439038753509521,0.9509996771812439,-0.21271741390228271,0.8120968493308262,-1.2564532401353705,0.7953311111585584,97
16:30:16,-0.042181700468063354,0.06624394655227661,0.04172581434249878,-0.09590199589729309,0.09753552824258804,-0.06999390572309494,0.22408220171928406,0.9515955448150635,-0.21036431193351746,0.8169632196450894,-1.258386146448877,0.8003318863920393,97
16:30:16,0.007630646228790283,-0.021940529346466064,-0.004262864589691162,0.35488754510879517,-0.17379504442214966,0.045334819704294205,0.23580853641033173,0.9460146427154541,-0.22237446904182434,0.8147100636244309,-1.2407109017810585,0.8050433362446695,97
16:30:16,0.0040536075830459595,0.005194544792175293,0.026390910148620605,0.09051235765218735,-0.08753152936697006,-0.12218014150857925,0.22688882052898407,0.9462089538574219,-0.23067334294319153,0.7771273198702288,-1.2413108181596255,0.7783901738664146,97
16:30:16,0.0038875937461853027,0.012800037860870361,0.02566540241241455,0.26078423857688904,0.048808202147483826,-0.35756736993789673,0.209430992603302,0.9474387168884277,-0.24186469614505768,0.7136535354866179,-1.2451330373318383,0.7136383621080461,97
16:30:16,0.011418655514717102,0.020869553089141846,0.03846007585525513,-0.1928892582654953,-0.08442042768001556,0.25544092059135437,0.21840998530387878,0.9481279253959656,-0.23097755014896393,0.7574394852326488,-1.2472941869250278,0.7634626454199298,97
16:30:16,-0.03671765327453613,0.03606677055358887,0.03356456756591797,-0.011011334136128426,0.01909771002829075,-0.11224468797445297,0.2065335065126419,0.9529200196266174,-0.2220076024532318,0.7493050604145827,-1.2627245371198528,0.7604318023640737,97
16:30:16,-0.01577526330947876,0.012849152088165283,0.030005931854248047,0.08193964511156082,0.006090564653277397,0.23703819513320923,0.21946561336517334,0.9531272053718567,-0.2082868069410324,0.8115260315256264,-1.263408514846556,0.826603517947452,97
16:30:16,0.0009503364562988281,0.005455374717712402,0.027581870555877686,0.0392739400267601,0.0336577445268631,-0.027604104951024055,0.23070943355560303,0.95222008228302,-0.20012535154819489,0.8562672193839325,-1.260424621161834,0.8710871167651986,97
16:30:16,-0.0008424222469329834,-0.0014055967330932617,0.015174031257629395,-0.008613424375653267,-0.01537158340215683,-0.02907736599445343,0.2281990647315979,0.95274817943573,-0.2004895806312561,0.8499461393587531,-1.2621583666922305,0.863308414313847,97
16:30:16,0.001907259225845337,-0.00829923152923584,0.014473497867584229,0.1263824701309204,0.010295430198311806,-0.043907176703214645,0.23089678585529327,0.9513257145881653,-0.2041226029396057,0.8468677156929095,-1.2575094528511719,0.8620117075351645,97
16:30:17,-0.006929174065589905,0.018660902976989746,0.03508979082107544,-0.020154768601059914,-0.16914090514183044,0.3240799009799957,0.2312188744544983,0.9502601027488708,-0.2086711823940277,0.8366109265660038,-1.2540699443170258,0.85300279627891,97
16:30:17,-0.009513914585113525,-0.009459972381591797,0.0032659173011779785,-0.18457193672657013,-0.0705948919057846,0.01593032293021679,0.2371760457754135,0.944766640663147,-0.22619350254535675,0.8090952002474451,-1.2368819380599279,0.8341948610152832,97
16:30:17,-0.0012256503105163574,-0.0128861665725708,0.00997912883758545,0.054921604692935944,-0.07532653212547302,-0.026334840804338455,0.22978800535202026,0.9476588368415833,-0.22167624533176422,0.8033639187372025,-1.2458216538124498,0.8366535658583513,97
16:30:17,0.003140658140182495,0.002216815948486328,0.01623523235321045,0.16561803221702576,0.030381256714463234,-0.300468385219574,0.2131689041852951,0.9482421875,-0.23536331951618195,0.7359561833173844,-1.2476537492945345,0.7639668708538119,97
16:30:17,0.006574720144271851,-0.008682787418365479,0.013713657855987549,0.1351085901260376,-0.07580989599227905,0.18998387455940247,0.22848790884017944,0.9435165524482727,-0.2399372160434723,0.760960921881784,-1.2330882841973643,0.7915482930440633,97
16:30:17,-0.004579663276672363,-0.004529476165771484,0.014167368412017822,0.0619659349322319,0.04341743141412735,0.015951097011566162,0.23524774610996246,0.9408431649208069,-0.24387004971504211,0.7674038945879305,-1.225110077982573,0.797298726437626,97
16:30:17,0.003169134259223938,-0.016117393970489502,0.009557187557220459,-0.14850714802742004,0.05944380164146423,0.0048923189751803875,0.24025535583496094,0.9416584968566895,-0.2357044219970703,0.7949594653494381,-1.2275244973253057,0.8214472014621111,97
16:30:17,-0.0030180662870407104,-0.010268449783325195,0.009044408798217773,0.052174292504787445,0.12960344552993774,-0.22763732075691223,0.23170261085033417,0.9436376690864563,-0.23635099828243256,0.7754671802421843,-1.2334540556332378,0.78542068047505,97
16:30:17,0.005281656980514526,0.012320756912231445,0.03224968910217285,0.24032661318778992,-0.013495121151208878,0.20712478458881378,0.2418966293334961,0.9401067495346069,-0.24017764627933502,0.7889639449811685,-1.2229433406815118,0.7973159454642489,97
16:30:17,-0.00391271710395813,0.0014830827713012695,0.02836906909942627,0.31151077151298523,0.08168652653694153,-0.21346132457256317,0.2360609769821167,0.936310887336731,-0.2599942684173584,0.737188328324735,-1.2119735316185114,0.7418833126463104,97
16:30:18,-0.0025458484888076782,-0.020558476448059082,0.0025588274002075195,0.17658013105392456,0.05713750422000885,-0.20584362745285034,0.21450668573379517,0.9335266947746277,-0.2872540056705475,0.6414173191765621,-1.2041272408920674,0.6245282437675611,97
16:30:18,0.005116850137710571,-0.003557443618774414,0.00236433744430542,-0.5496354103088379,-0.21432968974113464,0.4299122989177704,0.22784018516540527,0.9346380829811096,-0.27302125096321106,0.6954349399392743,-1.2072398810698683,0.6912700308930214,97
16:30:18,-0.003219515085220337,-0.009570598602294922,0.0027467012405395508,-0.4796837270259857,-0.17910140752792358,-0.08925548195838928,0.23736676573753357,0.9419939517974854,-0.2372858226299286,0.7855686941372946,-1.2285225681980536,0.8074980213511899,97
16:30:18,0.02078847587108612,-0.033638834953308105,-0.004197418689727783,-0.06226547062397003,-0.01664057932794094,0.04131264239549637,0.1973368376493454,0.9474921822547913,-0.2516278922557831,0.6650574671379363,-1.24530018590988,0.6783593823422472,97
16:30:18,-0.007351890206336975,0.008552610874176025,0.028742432594299316,0.3170453608036041,0.08325299620628357,0.16783356666564941,0.21880915760993958,0.9419214725494385,-0.25476762652397156,0.7096140289850824,-1.2283065797881052,0.7224995262165724,97
16:30:18,0.02295786142349243,0.010043680667877197,0.022751450538635254,0.28134968876838684,0.24532978236675262,-0.5591074228286743,0.21671289205551147,0.9366462230682373,-0.27518966794013977,0.6670746975891987,-1.2129296453557568,0.6565199493673911,97
16:30:18,0.02353385090827942,-0.010525882244110107,0.02170693874359131,0.24846656620502472,-0.027574988082051277,-0.10773995518684387,0.2143363654613495,0.9322981834411621,-0.2913418412208557,0.6342775588208474,-1.200715768040464,0.6188163969213991,97
16:30:18,-0.010706022381782532,-0.0024530887603759766,-0.0577465295791626,0.25831735134124756,0.05282211676239967,-0.5269681215286255,0.1830396205186844,0.930863082408905,-0.31621280312538147,0.5247224392376449,-1.1967679873305146,0.4876417727667467,97
16:30:18,-0.02016696333885193,0.07412344217300415,0.06691497564315796,-0.16674447059631348,-0.3315550982952118,0.6959043145179749,0.20156428217887878,0.934120237827301,-0.2946036458015442,0.600034891318356,-1.2057864727610115,0.5815684248732326,97
16:30:18,0.021234601736068726,-0.041942596435546875,0.03285491466522217,0.016435202211141586,0.14044757187366486,-0.1245032250881195,0.2247684895992279,0.937148928642273,-0.2668913006782532,0.6999321519272287,-1.2143675938960616,0.6946257602987672,97
16:30:19,-0.0004368126392364502,-0.024690866470336914,0.003482043743133545,-0.35712480545043945,-0.1287572681903839,0.4275551736354828,0.227900430560112,0.9385584592819214,-0.2591707706451416,0.7212853981792519,-1.2184293490856286,0.7121717908466714,97
16:30:19,0.03221416473388672,-0.01832181215286255,0.007878720760345459,-0.4339311718940735,-0.3224670886993408,-0.05818811431527138,0.2481365203857422,0.9380642175674438,-0.2417929768562317,0.7983453113507957,-1.217000098951913,0.8073692370223715,97
16:30:19,-0.03203675150871277,0.007382094860076904,0.004192471504211426,0.1823674440383911,0.017104066908359528,0.24034319818019867,0.240289568901062,0.9353550672531128,-0.2595609426498413,0.7468629544084014,-1.209261511755067,0.7530637554631886,97
16:30:19,-0.006073027849197388,-0.0553431510925293,-0.03143930435180664,-0.10864575207233429,0.08534090965986252,-0.12450721114873886,0.2429818958044052,0.9243956804275513,-0.294028103351593,0.6906265640155757,-1.1794481654019429,0.6918912272491831,97
16:30:19,-0.022825032472610474,0.024051249027252197,0.00021332502365112305,-0.48308753967285156,-0.10270275920629501,0.3351125717163086,0.2411028891801834,0.9281157851219177,-0.2836732566356659,0.704454365658165,-1.1893193062883145,0.7008853272250523,97
16:30:19,0.09717346727848053,-0.029432237148284912,0.055296361446380615,-0.14234060049057007,-0.12596148252487183,-0.3721795976161957,0.22338399291038513,0.9349837899208069,-0.2755085527896881,0.6812953204911053,-1.208213321734416,0.6880580423797238,97
16:30:19,-0.005763128399848938,0.007500827312469482,0.022242188453674316,-0.03205537050962448,-0.018282683566212654,0.24088115990161896,0.21352753043174744,0.9362279176712036,-0.2790756821632385,0.6531104665080665,-1.2117374238110195,0.6579325377658133,97
16:30:19,-0.007702261209487915,0.004412829875946045,0.023126065731048584,0.25643742084503174,0.06051066517829895,-0.0500233955681324,0.21951034665107727,0.930542528629303,-0.2930971086025238,0.642818426176412,-1.1958916990713793,0.642288127595502,97
16:30:19,0.0048126280307769775,-0.0010590553283691406,0.005287528038024902,0.08739699423313141,0.07810404151678085,-0.21618333458900452,0.21563200652599335,0.9258676767349243,-0.31027719378471375,0.6073392545461531,-1.1833255639273235,0.5953926127916968,97
16:30:19,-0.014234811067581177,0.015004396438598633,0.02715975046157837,-0.36203888058662415,-0.1162814125418663,0.34658387303352356,0.22161786258220673,0.9282822608947754,-0.2986261248588562,0.6384419121418756,-1.189766806923868,0.6329730905071499,97
16:30:20,-0.0005260705947875977,0.008768081665039062,0.030563950538635254,0.022626252844929695,0.0715864822268486,-0.058593977242708206,0.23433749377727509,0.9291173219680786,-0.2860541045665741,0.6863432424042104,-1.192018700303413,0.6860388199449836,97
16:30:20,-0.034526050090789795,0.04669409990310669,0.02903890609741211,-0.2536846995353699,0.04315697401762009,0.16013197600841522,0.2274286299943924,0.9332292675971985,-0.2781355679035187,0.6854347381920189,-1.2032985543495,0.6743297741142611,97
16:30:20,-0.0028305351734161377,-0.01574772596359253,0.005938351154327393,0.16377991437911987,-0.004391638562083244,-0.09381029009819031,0.2305077463388443,0.9287301898002625,-0.29039013385772705,0.6709406580866889,-1.1909730563386731,0.6636568926315966,97
16:30:20,-0.023848488926887512,0.0009679198265075684,0.015339791774749756,0.05622522532939911,-0.0337362065911293,-0.025913264602422714,0.2121884971857071,0.9305692315101624,-0.298357218503952,0.6181962368070755,-1.1959646152552448,0.6004577169952208,97
16:30:20,-0.0056519657373428345,0.01775205135345459,0.03137338161468506,0.11186212301254272,-0.02680852822959423,0.10710390657186508,0.2286294400691986,0.9304018020629883,-0.28649789094924927,0.6735290231124564,-1.1955075942901525,0.6634894073925647,97
16:30:20,-0.013769805431365967,0.02129131555557251,0.032281696796417236,0.025391146540641785,-0.010361911728978157,-0.00381009210832417,0.2283702939748764,0.9307538866996765,-0.28555962443351746,0.6745756466682807,-1.1964692412442395,0.6593629305390727,97
16:30:20,-0.002338096499443054,-0.025557756423950195,-0.0029292702674865723,0.028116360306739807,-0.16269606351852417,0.11699222773313522,0.2388959527015686,0.9287745952606201,-0.2833840250968933,0.7004227709447703,-1.191092945950237,0.6964339700193086,97
16:30:20,0.010326430201530457,0.012638449668884277,0.02451533079147339,-0.08318566530942917,-0.127685084939003,-0.14126195013523102,0.24060510098934174,0.9316089153289795,-0.27242258191108704,0.7234585006722487,-1.1988147107413467,0.7365925730908034,97
16:30:20,-0.0002849996089935303,0.014380097389221191,0.03175783157348633,-0.03895029425621033,0.030999111011624336,0.13365057110786438,0.22899973392486572,0.9361538887023926,-0.2667866051197052,0.7093291849952186,-1.211526772968571,0.7255188052401359,97
16:30:20,-0.00868496298789978,-0.03152918815612793,-0.00629657506942749,-0.05191482603549957,0.14613422751426697,0.02718830294907093,0.24225209653377533,0.930793821811676,-0.2737455368041992,0.7244397288324826,-1.1965785456467,0.7308503809243811,97
16:30:21,0.006901949644088745,0.007942616939544678,0.02792668342590332,-0.0049393270164728165,0.31957870721817017,-0.3138582408428192,0.24534183740615845,0.935740053653717,-0.2533729374408722,0.7692959808254415,-1.2103516428531644,0.7568699021568521,97
16:30:21,-0.014810636639595032,0.050216615200042725,0.05175173282623291,0.030465001240372658,-0.13955585658550262,0.21522851288318634,0.24509695172309875,0.9383723735809326,-0.24368998408317566,0.7882766436272198,-1.2178905874512214,0.772192545923221,97
16:30:21,-0.005197241902351379,0.0008283853530883789,0.016926229000091553,-0.08044234663248062,-0.035029176622629166,0.023071855306625366,0.24965889751911163,0.9350259304046631,-0.2517877221107483,0.7811528398319793,-1.2083322537180046,0.7736043742901854,97
16:30:21,-0.0004153251647949219,-0.002658367156982422,0.011491537094116211,0.0522664338350296,-0.08030983805656433,-0.014249417930841446,0.24890509247779846,0.933659553527832,-0.2575383484363556,0.7683529875180871,-1.2044981221553575,0.7648794689433396,97
16:30:21,-0.0028945356607437134,-0.014821052551269531,0.009361088275909424,-0.06537870317697525,-0.0569738894701004,-0.005063110031187534,0.2450672686100006,0.9336003661155701,-0.2614043056964874,0.753152751015625,-1.2043328469024674,0.7574359999723764,97
16:30:21,-0.006072402000427246,-0.002724766731262207,0.01361846923828125,0.18774357438087463,-0.08057988435029984,0.01548743899911642,0.24339281022548676,0.9298506379127502,-0.27593085169792175,0.7228253252683835,-1.1940066918623167,0.7346288527991084,97
16:30:21,-0.007965460419654846,-0.0008776187896728516,0.021841466426849365,0.19760657846927643,0.06532938778400421,0.04102369025349617,0.24235637485980988,0.9270276427268982,-0.286152184009552,0.7027202693794594,-1.1864071322501464,0.7138945269618617,97
16:30:21,-0.007461607456207275,0.008389890193939209,0.019204378128051758,0.3559621274471283,-0.04144206643104553,-0.007820013910531998,0.2397163212299347,0.9144795536994934,-0.32598039507865906,0.6340721977768474,-1.1542198349270008,0.6409141480934792,97
16:30:21,-0.0023016035556793213,-0.0112457275390625,0.003683805465698242,0.12466499954462051,0.1122146025300026,-0.16272757947444916,0.22942939400672913,0.9116849899291992,-0.3408704400062561,0.5924220183444057,-1.147366364255043,0.5935873192714244,97
16:30:21,-0.0009389817714691162,0.006850898265838623,0.011870861053466797,-0.35342568159103394,0.02734312415122986,0.19787029922008514,0.22243617475032806,0.9189633727073669,-0.32562023401260376,0.5993038470451783,-1.1654436767391978,0.5935432112414848,97
16:30:22,-0.005753874778747559,0.0034489035606384277,0.009982585906982422,0.16373410820960999,0.04113909602165222,-0.2567233145236969,0.21891973912715912,0.9199086427688599,-0.3253341615200043,0.5923106119159176,-1.1678474949579196,0.5838298861747442,97
16:30:22,0.005820184946060181,0.008679628372192383,0.024568378925323486,-0.32955601811408997,0.004084671847522259,0.15035976469516754,0.22286388278007507,0.9224599003791809,-0.31527698040008545,0.6153304015745069,-1.1744040018224204,0.6081159393379918,97
16:30:22,-0.005232065916061401,-0.020839989185333252,-0.002642810344696045,-0.08672500401735306,0.005536627024412155,-0.04428507760167122,0.21795542538166046,0.923643946647644,-0.3152417540550232,0.6049249571182246,-1.1774820946342766,0.5944265858194134,97
16:30:22,-0.0012246668338775635,0.0047493577003479,0.02027130126953125,-0.009764710441231728,-0.019204936921596527,0.05077352747321129,0.2254226803779602,0.9263445734977722,-0.3017786741256714,0.6415655993351389,-1.1845896483753193,0.6340439060295583,97
16:30:22,-0.022684693336486816,-0.019694864749908447,0.01104879379272461,6.42184168100357e-05,0.029778849333524704,0.05726444721221924,0.219478040933609,0.9272754788398743,-0.30329808592796326,0.6264148943559262,-1.1870685159676622,0.6168444911017604,97
16:30:22,0.0036209821701049805,-0.010632216930389404,0.015736639499664307,0.09629993885755539,0.009222975000739098,-0.08012404292821884,0.22407127916812897,0.926558792591095,-0.30212700366973877,0.6381330638492647,-1.1851586766730076,0.6300055218136257,97
16:30:22,-0.008426487445831299,0.0038090944290161133,0.015356063842773438,-0.1359889656305313,-0.016911422833800316,0.14090287685394287,0.22330138087272644,0.927773118019104,-0.29895392060279846,0.6415414466944354,-1.1884000371796126,0.6335731132718976,97
16:30:22,-0.007724851369857788,-0.010688364505767822,0.009555160999298096,0.20043087005615234,0.04951393976807594,-0.07650826126337051,0.22470560669898987,0.9242047667503357,-0.3087928891181946,0.6290693736042638,-1.1789479193910275,0.6197061741286314,97
16:30:22,-0.00039821863174438477,0.004781544208526611,-0.020630300045013428,0.0865895226597786,0.10365200787782669,-0.15660257637500763,0.22151412069797516,0.925489068031311,-0.30724817514419556,0.6246560566864744,-1.1823248140236151,0.6040348680574337,97
16:30:22,-0.014563888311386108,-0.05035656690597534,-0.02289491891860962,-0.42611613869667053,-0.07314486801624298,0.29881688952445984,0.2072831094264984,0.9286709427833557,-0.307577520608902,0.5930084119325976,-1.1908134016162875,0.5677991441266341,97
16:30:23,0.007372647523880005,0.002650737762451172,0.01591181755065918,0.21599598228931427,0.006874332204461098,-0.23189625144004822,0.21381942927837372,0.9323344230651855,-0.29160547256469727,0.6326939841086076,-1.2008159259764628,0.6157293017865818,97
16:30:23,-0.023357033729553223,-0.018054604530334473,0.04336106777191162,-0.2735454738140106,-0.050055794417858124,0.1593404859304428,0.20409809052944183,0.9337987303733826,-0.29387739300727844,0.6070256753372347,-1.204886898778667,0.5890793826719188,97
16:30:23,-0.009990423917770386,-0.03960311412811279,0.015898466110229492,-0.34132933616638184,-0.08413200080394745,0.09874877333641052,0.21203282475471497,0.9348702430725098,-0.2847099304199219,0.6401215647346178,-1.2078933330077077,0.6357560122656332,97
16:30:23,-0.02928866446018219,-0.00029402971267700195,-0.008488178253173828,-0.18849477171897888,-0.032547108829021454,0.04290761426091194,0.2146076261997223,0.9391562938690186,-0.26819607615470886,0.6748563436071061,-1.2201657459344974,0.679804916208272,97
16:30:23,-0.005240112543106079,0.005861401557922363,0.014068126678466797,-0.11465863883495331,-0.03866998106241226,0.017125548794865608,0.21540044248104095,0.9402948617935181,-0.26353055238723755,0.685239555188486,-1.2234955600431408,0.6942286709025782,97
16:30:23,-0.01281479001045227,-0.003751039505004883,0.014989674091339111,0.027324069291353226,0.04689205437898636,0.03676316887140274,0.21706999838352203,0.9405690431594849,-0.2611713707447052,0.6934425151998513,-1.2243019844504828,0.7017255092671016,97
16:30:23,0.0012970268726348877,0.01822453737258911,0.04127049446105957,0.7388783693313599,0.1314879059791565,-0.2933114171028137,0.20929054915905,0.9357442855834961,-0.2838664948940277,0.6353138073604945,-1.2103636137309368,0.6327873000224927,97
16:30:23,0.03904333710670471,-0.012614667415618896,0.08284986019134521,-0.04271813482046127,-0.04872927814722061,0.1232418641448021,0.21446721255779266,0.9365845918655396,-0.27715179324150085,0.65857605823925,-1.2127538155111213,0.6587719046416286,97
16:30:23,-0.006269186735153198,0.0018764734268188477,0.020480215549468994,-0.32332369685173035,0.049407679587602615,0.1507778763771057,0.22621053457260132,0.9379019141197205,-0.26299959421157837,0.7103385018706673,-1.2165318751416694,0.716342667848135,97
16:30:23,-0.0008339583873748779,0.01745295524597168,0.026594877243041992,-0.14597634971141815,0.09363105893135071,0.092342808842659,0.23476754128932953,0.9423140287399292,-0.23859693109989166,0.777308613136048,-1.2294775685495614,0.7785955281150486,97
16:30:24,-0.0005288273096084595,-0.0012146234512329102,0.021111607551574707,0.05485422909259796,0.15518097579479218,-0.15356601774692535,0.23688867688179016,0.9448076486587524,-0.226323202252388,0.8082033788269181,-1.2370069252610085,0.7981902895450868,97
16:30:24,-0.005428731441497803,-0.01401752233505249,0.003155350685119629,0.04141192510724068,-0.0560724139213562,0.06111431494355202,0.22776570916175842,0.944945752620697,-0.23494769632816315,0.769877956768819,-1.2374288078123599,0.7493280730907624,97
16:30:24,-0.008724033832550049,-0.012010753154754639,0.00581669807434082,-0.004340650513768196,-0.039896637201309204,0.011797362938523293,0.2360353320837021,0.9405124187469482,-0.2443842887878418,0.7680214405602495,-1.2241354149613783,0.7573296120700176,97
16:30:24,-0.0024620890617370605,-0.0031774044036865234,0.011524379253387451,0.09184101223945618,-0.03386164456605911,-0.03570490702986717,0.235159769654274,0.9395223259925842,-0.24899324774742126,0.7568334060010955,-1.2212328486569277,0.7502554804298116,97
16:30:24,-0.0033977925777435303,-0.004859983921051025,0.011479198932647705,-0.04757733643054962,-0.08289816230535507,0.027328651398420334,0.23507320880889893,0.9407015442848206,-0.244583860039711,0.7655727171075501,-1.224692429383368,0.764754896513875,97
16:30:24,-0.006503626704216003,0.006668746471405029,0.01772218942642212,-0.2482614517211914,-0.27617865800857544,-0.017328830435872078,0.2316329926252365,0.9442943930625916,-0.23378273844718933,0.7807792155599521,-1.2354438971592125,0.8027966966818638,97
16:30:24,-0.0007553696632385254,-0.0009172558784484863,0.020534217357635498,0.03715193271636963,-0.21011602878570557,-0.09651286900043488,0.2175990790128708,0.9450289011001587,-0.24407178163528442,0.7281198225915297,-1.237683021649346,0.767314397229292,97
16:30:24,0.017533957958221436,-0.021806836128234863,0.04904162883758545,0.4045312702655792,-0.015702348202466965,-0.0610044039785862,0.20675592124462128,0.938513457775116,-0.2764858603477478,0.6420911642375423,-1.2182990231136113,0.6849174094972881,97
16:30:24,-0.015401333570480347,0.07057994604110718,0.0007595419883728027,0.3404151499271393,0.011395847424864769,-0.0218021422624588,0.20317701995372772,0.9349637627601624,-0.2907950282096863,0.6098495361508014,-1.2081569121081426,0.6546207346618186,97
16:30:24,-0.003732621669769287,-0.010478436946868896,0.010790824890136719,0.14801719784736633,-0.03876186162233353,-0.02390071377158165,0.20151814818382263,0.9303291440010071,-0.3063955307006836,0.5817733279520202,-1.195309327611386,0.6286306699280126,97
16:30:25,-0.0012014806270599365,-0.012645184993743896,0.0067601799964904785,-0.0025227759033441544,0.005496679805219173,-0.021655667573213577,0.20150470733642578,0.9290931820869446,-0.31013163924217224,0.5761919069489946,-1.1919533624365422,0.622795043428539,97
16:30:25,-0.007244989275932312,0.0037602782249450684,-0.011463046073913574,0.223097026348114,-0.03252074122428894,-0.04597512260079384,0.19935421645641327,0.9274581074714661,-0.3163531720638275,0.5623037652656504,-1.187556590820734,0.6097145219345909,97
16:30:25,-0.0022846758365631104,0.006482481956481934,0.04574352502822876,0.03587041795253754,-0.08164754509925842,0.017294127494096756,0.19309689104557037,0.9236067533493042,-0.3311556279659271,0.5279004526385631,-1.1773850393843575,0.5816632864888206,97
16:30:25,-0.005174189805984497,-0.000560760498046875,0.04661357402801514,-0.0052085742354393005,-0.0005998276174068451,-0.004778950475156307,0.1911340355873108,0.9213571548461914,-0.3384802043437958,0.5140462609299975,-1.1715575912198737,0.5700471626483598,97
16:30:25,-0.007855504751205444,-0.005169689655303955,0.012829184532165527,0.0535878948867321,0.007703906856477261,-0.00970286875963211,0.19067198038101196,0.9202131628990173,-0.34183600544929504,0.5088027325760338,-1.1686247893102495,0.5638576776648995,97
16:30:25,-0.005652725696563721,-0.028251469135284424,0.001898348331451416,0.04865971952676773,0.03481888025999069,0.0014171600341796875,0.19016282260417938,0.9159354567527771,-0.35341235995292664,0.4936426900870251,-1.1578326134761268,0.5443832183944909,97
16:30:25,-0.012344568967819214,0.01373910903930664,0.027361571788787842,0.1440347135066986,0.16226844489574432,-0.05098399892449379,0.1926432102918625,0.9159826040267944,-0.3519439101219177,0.5008210491362253,-1.1579502279786515,0.5456296778217028,97
16:30:25,-0.025291532278060913,-0.02911454439163208,-0.018925845623016357,-0.24755117297172546,0.3217763602733612,-0.04538603127002716,0.1930931657552719,0.9226574301719666,-0.3337938189506531,0.5244459320907884,-1.1749158902809937,0.5465093730336478,97
16:30:25,-0.008142322301864624,-0.016853153705596924,-0.005966365337371826,-0.04168056696653366,0.24444612860679626,-0.0687592625617981,0.19336940348148346,0.9284468293190002,-0.3171667754650116,0.5475048442517974,-1.1902095162080726,0.5397779756708642,97
16:30:25,0.004072412848472595,0.0017985105514526367,0.04071599245071411,0.23799528181552887,0.014969544485211372,-0.05878705903887749,0.1930871605873108,0.9272975325584412,-0.3206815719604492,0.5419731621941953,-1.1871275055324897,0.5212209403025235,97
16:30:26,-0.017118096351623535,-0.010547220706939697,-0.010510563850402832,-0.10471199452877045,0.04630136862397194,-0.14673155546188354,0.183287113904953,0.9270704388618469,-0.3270261883735657,0.5108431290521589,-1.186521215565574,0.48649677580507333,97
16:30:26,0.0005210041999816895,-0.04318094253540039,0.005176842212677002,-0.28654998540878296,-0.02764928713440895,0.13772866129875183,0.1871020495891571,0.9307286143302917,-0.3142246901988983,0.5370600327402664,-1.1964001436519833,0.5105563423919282,97
16:30:26,-0.005104094743728638,-0.0025791525840759277,0.013185083866119385,-0.07052579522132874,-0.020381255075335503,0.01593191921710968,0.1954127550125122,0.9346214532852173,-0.29714739322662354,0.581719647697023,-1.2071930951540577,0.5574879990541195,97
16:30:26,-0.00895988941192627,-0.006530642509460449,0.015472888946533203,-0.007653621956706047,-0.0031625889241695404,-0.008385669440031052,0.19383637607097626,0.9351243376731873,-0.2965972423553467,0.5788555681978497,-1.2086098588215055,0.5578513981231866,97
16:30:26,-0.0024988949298858643,-0.008581399917602539,0.01626133918762207,0.0027835723012685776,0.0007091164588928223,-0.04958237335085869,0.19567619264125824,0.9366716146469116,-0.2904427945613861,0.5928676180343698,-1.2130021787603222,0.5753944162552782,97
16:30:26,-0.009824469685554504,0.0019428730010986328,0.022888362407684326,0.11723584681749344,0.0005948655307292938,-0.09116843342781067,0.186201810836792,0.939804196357727,-0.2865258455276489,0.5762771233247601,-1.2220567766701187,0.5556260101139366,97
16:30:26,0.0001639723777770996,0.01052558422088623,0.028603851795196533,-0.006896220147609711,-0.03896798938512802,0.19214077293872833,0.19968140125274658,0.9395372271537781,-0.27820339798927307,0.6225418374158395,-1.2212763907393624,0.6037041301688811,97
16:30:26,-0.005976855754852295,0.010287344455718994,0.011531233787536621,0.0029414985328912735,0.007622415199875832,0.10908103734254837,0.21090376377105713,0.9359314441680908,-0.28204968571662903,0.642062084185607,-1.2108946270651082,0.6267196887759835,97
16:30:26,-0.014166712760925293,0.002075672149658203,0.020797312259674072,0.08522757887840271,-0.016777198761701584,0.09151829034090042,0.2146228551864624,0.9343166947364807,-0.28458648920059204,0.6461561944793984,-1.2063372213112498,0.6313816241817256,97
16:30:26,-0.0498475581407547,0.03398257493972778,-0.005342960357666016,-0.10787743330001831,-0.021553579717874527,-0.028689077123999596,0.21702446043491364,0.9347743391990662,-0.28124234080314636,0.6572222517139056,-1.207623352452461,0.6491693930858314,97
16:30:27,-0.01295846700668335,0.00978916883468628,0.02042531967163086,-0.08179762214422226,-0.10129314661026001,0.01762649044394493,0.2146659642457962,0.9421830177307129,-0.2573125958442688,0.6952857390829004,-1.229086269678126,0.7010751241634985,97
16:30:27,-0.008172497153282166,-0.009921610355377197,0.006400108337402344,-0.08293026685714722,-0.04821794852614403,-0.05939079821109772,0.20905590057373047,0.9428505301475525,-0.25947725772857666,0.678195393880944,-1.2310839565179656,0.6915248445568504,97
16:30:27,0.001036524772644043,0.014265894889831543,0.03573906421661377,0.14214199781417847,-0.005715761333703995,-0.03684713691473007,0.20451608300209045,0.9430619478225708,-0.26231154799461365,0.6622202412312511,-1.2317189251533218,0.6760188772289726,97
16:30:27,-0.0008747875690460205,-0.0055615901947021484,0.013489782810211182,-0.08740837126970291,-0.06313830614089966,-0.008643995970487595,0.20368097722530365,0.9428859949111938,-0.2635907828807831,0.6578819383801415,-1.2311903559600408,0.6787174701596822,97
16:30:27,0.020709484815597534,-0.05083143711090088,0.0414271354675293,0.05508778989315033,-0.011679643765091896,-0.02811330184340477,0.19672976434230804,0.9435083866119385,-0.2666259706020355,0.6356791302140614,-1.233063700877266,0.6566885663958992,97
16:30:27,-0.003768414258956909,-0.009362995624542236,0.014793038368225098,0.05282863229513168,0.00421090517193079,-0.0400322787463665,0.19332978129386902,0.9442301988601685,-0.26655763387680054,0.6274938099780659,-1.2352489140522949,0.6501746966854005,97
16:30:27,-0.002078831195831299,-0.00667339563369751,0.013706326484680176,0.018725253641605377,-0.004255017265677452,-0.05330813676118851,0.18625378608703613,0.9449737668037415,-0.2689500153064728,0.6056894898610938,-1.2375144792064918,0.6260324364022749,97
16:30:27,0.04005827009677887,-0.07098042964935303,0.07612812519073486,-0.11032433807849884,-0.033454179763793945,-0.11236932873725891,0.17776229977607727,0.9425391554832458,-0.2828792333602905,0.5610430160146098,-1.2301506171527066,0.5758715603693835,97
16:30:27,-0.017314672470092773,0.01690232753753662,-0.004352152347564697,0.020136728882789612,0.020089469850063324,-0.06633046269416809,0.16929349303245544,0.9430353045463562,-0.28639861941337585,0.5338581387730987,-1.2316388354618821,0.5466514327039902,97
16:30:27,-0.012850761413574219,0.021290123462677002,-0.023403525352478027,0.2615682780742645,0.03137621283531189,-0.15565074980258942,0.15570472180843353,0.942645251750946,-0.2952556312084198,0.48529185213981074,-1.2304684156218357,0.49158346530216585,97
16:30:28,0.008775323629379272,-0.00412064790725708,0.08007597923278809,-0.20682798326015472,0.02403227984905243,-0.03394535928964615,0.15048186480998993,0.9451683163642883,-0.28984811902046204,0.4788696139216737,-1.238109610153634,0.48226306245124717,97
16:30:28,-0.0027837753295898438,-0.032642900943756104,0.04941314458847046,-0.13624009490013123,-0.016605427488684654,-0.012808647006750107,0.14707209169864655,0.9463316798210144,-0.2877953350543976,0.47243272749000315,-1.2416904529587247,0.47509524937931624,97
16:30:28,-0.006818234920501709,0.0018503069877624512,0.016612112522125244,0.15076051652431488,-0.035502150654792786,0.21454089879989624,0.15869028866291046,0.9438211917877197,-0.28986045718193054,0.5008997287084453,-1.2340089490371802,0.5074792064725483,97
16:30:28,-0.003936171531677246,0.0055661797523498535,0.017799317836761475,0.3479801118373871,-0.038076095283031464,0.2112814486026764,0.18737882375717163,0.9338181018829346,-0.30475062131881714,0.5512740304141482,-1.204940896964145,0.5669137350776979,97
16:30:28,0.0018123835325241089,-0.035774052143096924,-0.004839420318603516,-0.012350374832749367,0.07686939835548401,-0.1782628446817398,0.19037361443042755,0.9268337488174438,-0.32363107800483704,0.5317295682478205,-1.1858903960116334,0.5426775029009882,97
16:30:28,-0.10207520425319672,0.1298808455467224,-0.012972712516784668,-0.7396764159202576,-0.11891315132379532,-0.052512917667627335,0.18226154148578644,0.9382721781730652,-0.29398292303085327,0.5549764042208697,-1.2176008106574765,0.5664616551318626,97
16:30:28,0.005498215556144714,-0.019499480724334717,0.00932919979095459,-0.007243761792778969,0.02950321137905121,0.13721494376659393,0.18278153240680695,0.9412145614624023,-0.2840881943702698,0.5717194784778558,-1.2262079725482917,0.5821227109040633,97
16:30:28,-0.013438999652862549,-0.0064015984535217285,0.010511696338653564,0.033687423914670944,-0.0018911957740783691,0.015624058432877064,0.18505623936653137,0.938401460647583,-0.29181647300720215,0.5651540756042838,-1.2179747600250248,0.5754970168647346,97
16:30:28,0.00029884278774261475,-0.015085041522979736,0.01749110221862793,0.2234853208065033,0.003986400552093983,0.016148434951901436,0.18560060858726501,0.9353660345077515,-0.3010696470737457,0.5524423479454859,-1.2092925470241866,0.56029203731299,97
16:30:28,-0.006338059902191162,0.001570582389831543,0.021277546882629395,-0.005888212472200394,0.06532140076160431,0.051585257053375244,0.19707460701465607,0.9338774681091309,-0.29838642477989197,0.5836987253445777,-1.2051069748294845,0.5899456241440449,97
16:30:29,-0.007118940353393555,0.01740550994873047,0.025249063968658447,-0.11936257779598236,0.19310173392295837,-0.1282295137643814,0.19524621963500977,0.9380621910095215,-0.2862139642238617,0.5986581837820695,-1.2169941797111552,0.5890626648051767,97
16:30:29,-0.002510160207748413,-0.043547749519348145,0.0227777361869812,0.12097252905368805,0.006553954444825649,-0.008821096271276474,0.19857196509838104,0.939246416091919,-0.27997392416000366,0.6169081543563187,-1.2204281142036737,0.6039587815970082,97
16:30:29,-0.0030241310596466064,0.06244558095932007,0.04763096570968628,0.03017684817314148,-0.05019640922546387,0.2512051463127136,0.20952294766902924,0.9370428919792175,-0.279375821352005,0.6434806687419007,-1.214063888050749,0.6334788014829245,97
16:30:29,-0.004932999610900879,-0.012367784976959229,0.009894013404846191,-0.12308435142040253,0.011450974270701408,0.012849045917391777,0.21434633433818817,0.9346011877059937,-0.2838597893714905,0.6467656723292666,-1.2071361811150212,0.6387300967268824,63
16:30:29,-0.004862487316131592,0.0048105716705322266,0.027564823627471924,0.0711652934551239,0.021223444491624832,-0.03748123720288277,0.2125973105430603,0.9364504814147949,-0.27903929352760315,0.651067537177032,-1.2123712682784504,0.6429647078028106,63
16:30:29,-0.006483510136604309,0.001799941062927246,0.019425570964813232,-0.04303957521915436,0.0017775744199752808,-0.016663840040564537,0.21031199395656586,0.9384841918945312,-0.2738909125328064,0.6548387273419003,-1.218214323777581,0.6460603261031665,63
16:30:29,-0.007945075631141663,0.007308781147003174,0.024818122386932373,-0.019514277577400208,0.003960833884775639,0.04865923896431923,0.21220074594020844,0.9383461475372314,-0.27290552854537964,0.6609082062183684,-1.2178147116269746,0.65185159645092,63
16:30:29,-0.005191296339035034,-0.007082998752593994,0.013629317283630371,-0.09285986423492432,-0.13045157492160797,0.020938929170370102,0.2099963128566742,0.9405005574226379,-0.2671334445476532,0.6662139818703281,-1.2241005223343757,0.6639619995753179,63
16:30:29,-0.006389841437339783,0.003863215446472168,0.017970621585845947,-0.04930280148983002,-0.12582938373088837,0.0547536201775074,0.21215638518333435,0.9393513798713684,-0.2694598436355591,0.6669733037238678,-1.2207341592850451,0.6794430217231688,63
16:30:29,-0.007947415113449097,-0.0016285181045532227,0.011605143547058105,0.03492366522550583,-0.004628924652934074,0.007218057755380869,0.21136410534381866,0.9375342130661011,-0.2763238251209259,0.6529782542279067,-1.2154734556244153,0.6705732751044109,63
16:30:30,-0.0041509270668029785,-0.005043327808380127,0.012342393398284912,-0.009673628956079483,0.004188534803688526,-0.038544636219739914,0.20953598618507385,0.938019335269928,-0.2760692834854126,0.6492349271568518,-1.2168706026907377,0.6668470200913424,63
16:30:30,-0.004516184329986572,0.007146656513214111,0.02486938238143921,-0.23462659120559692,-0.020213477313518524,0.0165907870978117,0.2077343761920929,0.9414234161376953,-0.2656472623348236,0.663664416280394,-1.2268266367701477,0.6816497618135106,63
16:30:30,0.011312171816825867,0.03763258457183838,0.0852881669998169,0.2065018117427826,0.2012464702129364,0.0411272868514061,0.20512008666992188,0.9430570602416992,-0.26185718178749084,0.6644921688734432,-1.2317042033971057,0.6733083292926292,63
16:30:30,-0.008805587887763977,-0.00023502111434936523,0.02218085527420044,-0.3806881904602051,-0.027509473264217377,0.037697937339544296,0.20498935878276825,0.9482248425483704,-0.24258844554424286,0.7015892430130115,-1.2475991275805112,0.7112367709796007,63
16:30:30,0.006124168634414673,-0.007171273231506348,0.03250455856323242,-0.31070831418037415,-0.021466495469212532,0.02538454532623291,0.20066438615322113,0.9531314969062805,-0.2264382541179657,0.725125411157362,-1.2634226880570985,0.7350792593433992,63
16:30:30,-0.004942864179611206,0.0031659603118896484,0.028106510639190674,-0.20009469985961914,-0.0337897390127182,-0.005431691184639931,0.2017979472875595,0.9564507603645325,-0.21090121567249298,0.763343842812853,-1.2745902344586133,0.777761646903183,63
16:30:30,-0.0085371732711792,-0.0006563663482666016,0.02104133367538452,-0.31502342224121094,-0.0248859953135252,-0.10171881318092346,0.19396333396434784,0.9626534581184387,-0.18888238072395325,0.798668939401175,-1.2966382255739617,0.8145863375463658,63
16:30:30,-0.005732700228691101,-0.0022614002227783203,0.023141980171203613,0.059152837842702866,-0.05238525941967964,0.018734365701675415,0.19053329527378082,0.9661509990692139,-0.17392314970493317,0.8309417696137479,-1.309868344765267,0.8557533713086602,63
16:30:30,-0.009843945503234863,0.01452624797821045,0.026295840740203857,0.08847077935934067,-0.17581850290298462,-0.0806737095117569,0.18709151446819305,0.9698564410209656,-0.1561262309551239,0.8753751014065646,-1.3246408835706567,0.9128478581498042,63
16:30:30,-0.0004009157419204712,-0.008364558219909668,0.02010524272918701,-0.0019094496965408325,-0.03756716847419739,0.010639154352247715,0.1836298406124115,0.970255434513092,-0.15774841606616974,0.8610679211854022,-1.3262836790128907,0.9020693655569945,63
16:30:31,-0.008454546332359314,0.008572399616241455,0.028464794158935547,0.11656153202056885,0.02254517190158367,-0.040115635842084885,0.18179576098918915,0.9699353575706482,-0.16178971529006958,0.8435597856682019,-1.3249649263272525,0.885058321983147,63
16:30:31,-0.004466444253921509,-0.012161970138549805,0.019073784351348877,0.03354494646191597,-0.0325271338224411,0.020166080445051193,0.17796015739440918,0.9696579575538635,-0.16761207580566406,0.8153339934434545,-1.3238276840947547,0.8542787410367335,63
16:30:31,-0.015601098537445068,0.02307814359664917,0.035535335540771484,0.2110435664653778,0.05756600573658943,0.12206500768661499,0.18550913035869598,0.967682421207428,-0.17081347107887268,0.8266173713831195,-1.315872076085708,0.8691585980125183,63
16:30:31,-0.34891223907470703,0.22332459688186646,0.3213682770729065,-0.3495955169200897,0.2542279362678528,-0.6338018774986267,0.18266907334327698,0.9552559852600098,-0.23263274133205414,0.6656667166618518,-1.270524065120594,0.7056751709819962,63
16:30:31,-0.04403376579284668,-0.12227046489715576,-0.13826686143875122,0.582038164138794,0.22109900414943695,-0.1793219894170761,0.17623719573020935,0.9555904865264893,-0.2361934781074524,0.6410364687156394,-1.2716569936233162,0.6648893763598411,63
16:30:31,-0.008334696292877197,-0.10750901699066162,0.0833166241645813,-0.1989751160144806,0.0508660264313221,-0.0687563344836235,0.1702927201986313,0.938356876373291,-0.3008102774620056,0.5151300752020692,-1.2178457630669461,0.511915176664334,63
16:30:31,-0.0023342669010162354,0.03059518337249756,0.042862892150878906,0.08115827292203903,-0.11987350136041641,0.0966363474726677,0.1751108467578888,0.9400081038475037,-0.2927813231945038,0.5390170678120598,-1.222654109777092,0.5422602533536389,63
16:30:31,-0.09971044957637787,-0.09765708446502686,0.08582019805908203,0.08877091854810715,0.007807770743966103,0.017932221293449402,0.03928564861416817,-0.5252982378005981,-0.8500108122825623,0.04618495610746943,0.553065555427537,-0.024273372426288627,63
16:30:31,-0.06917177140712738,-0.06974631547927856,0.10353654623031616,0.011095830239355564,0.030402828007936478,-0.10748215764760971,0.04639039561152458,-0.5302140712738037,-0.8465937972068787,0.05474177462886336,0.5588530000759798,-0.03207257068326327,63
16:30:31,-0.00839821994304657,0.02518439292907715,0.025964438915252686,0.03909577429294586,0.021502278745174408,-0.014447823166847229,-0.005395723041146994,-0.610831618309021,-0.7917421460151672,-0.006814895146791697,0.6571105366276102,0.0007790746888785514,63
16:30:32,0.03632499650120735,-0.009507715702056885,0.022446274757385254,0.09970319271087646,-0.10370970517396927,0.09300833195447922,-0.013192659243941307,-0.6113565564155579,-0.7912452816963196,-0.016671742124379045,0.6577737089633854,0.003968387230182104,63
16:30:32,-0.0007666945457458496,-0.009970486164093018,0.00573962926864624,-0.00036188773810863495,0.03257090598344803,0.007590101566165686,-0.011806542053818703,-0.6064537167549133,-0.7950311303138733,-0.014849322662216346,0.6515928848600974,0.00572064712282031,63
16:30:32,0.001298719085752964,0.012054026126861572,0.00967782735824585,-0.0013291481882333755,0.03756380081176758,-0.008111363276839256,-0.014451786875724792,-0.6108695864677429,-0.7915993332862854,-0.018254413393548424,0.657158457291219,0.009785765121461353,63
16:30:32,-0.009027942083775997,0.019896864891052246,0.021625399589538574,-0.008907703682780266,0.016602061688899994,0.0014368677511811256,-0.011601928621530533,-0.6124103665351868,-0.7904549241065979,-0.014676479756036453,0.6591059850590784,0.009355922952450989,63
16:30:32,-0.0010402090847492218,0.00730443000793457,0.009254634380340576,-0.0175430029630661,-0.016466407105326653,-6.169290281832218e-05,-0.013577696867287159,-0.6120096445083618,-0.7907336950302124,-0.017169323085787103,0.6585992549698539,0.010462014893392402,63
16:30:32,-0.006765520200133324,0.0076354146003723145,0.01661813259124756,-0.01867324858903885,-0.0348222479224205,-0.009919649921357632,-0.014779874123632908,-0.6099144220352173,-0.7923294305801392,-0.018651534387455395,0.6559526097774366,0.009315252336009047,63
16:30:32,-0.009456422179937363,-0.00836026668548584,0.03055638074874878,-0.009582018479704857,-0.06298092007637024,-0.052575767040252686,-0.017078587785363197,-0.6086738109588623,-0.7932367324829102,-0.02152692697601889,0.6543880325634526,0.006546863639323481,63
16:30:32,-0.019661270081996918,-0.004363834857940674,0.042725324630737305,-0.035194702446460724,-0.08598929643630981,-0.14833344519138336,-0.01827203668653965,-0.6078325510025024,-0.7938549518585205,-0.023012781893661533,0.6533281967520053,-0.004752363178080726,63
16:30:32,0.0016561150550842285,0.00967341661453247,0.060700297355651855,-0.041224367916584015,-0.15956684947013855,-0.17077617347240448,-0.01812029257416725,-0.6052373051643372,-0.7958388924598694,-0.022764861344546975,0.6500639153125641,-0.02533701994430618,63
16:30:32,0.017065521329641342,-0.009229660034179688,0.03989219665527344,0.09248575568199158,-0.4731319546699524,-0.15146054327487946,-0.03433836251497269,-0.6092987060546875,-0.7921969294548035,-0.04331862284496679,0.6551758636836001,-0.044344861008832635,63
16:30:33,-0.03160332143306732,0.03327900171279907,-0.05567777156829834,0.14438624680042267,-0.5562654137611389,-0.2856084704399109,-0.06025439128279686,-0.6222204566001892,-0.7805198431015015,-0.07704496260389147,0.6715758886976331,-0.07673112647864169,63
16:30:33,0.004151210188865662,0.013580501079559326,-0.02491021156311035,0.265421062707901,-0.44259828329086304,-0.2534859776496887,-0.08007866144180298,-0.6374490857124329,-0.7663198709487915,-0.10411980747297876,0.6911829355801778,-0.10852547846719422,63
16:30:33,-0.00885162502527237,-0.0010604262351989746,-0.0020301342010498047,0.49637916684150696,-0.4893588423728943,-0.22584794461727142,-0.09783752262592316,-0.6631830930709839,-0.7420350313186646,-0.1310941028501456,0.7250636984599185,-0.13395795164655494,63
16:30:33,-0.03178425133228302,-0.05707007646560669,0.00960773229598999,0.5661606192588806,-0.7513678073883057,-0.26747235655784607,-0.12724249064922333,-0.7024799585342407,-0.7002366185188293,-0.17975221659743593,0.7788760337406894,-0.15275832464183392,63
16:30:33,-0.036799609661102295,0.01039433479309082,-0.0011668205261230469,0.436155766248703,-0.6998756527900696,-0.3353632390499115,-0.15745951235294342,-0.7426916360855103,-0.6508576273918152,-0.23736546869167435,0.8370810137587271,-0.17768419373894526,63
16:30:33,-0.001013830304145813,0.03372836112976074,0.0035321712493896484,0.31030943989753723,-0.6410834193229675,-0.3487533926963806,-0.17293569445610046,-0.7710453867912292,-0.6128475666046143,-0.27503264188310356,0.8804812457264375,-0.21417261309201763,63
16:30:33,0.012117147445678711,0.005321025848388672,0.05726313591003418,0.13937604427337646,-0.7506559491157532,-0.48356950283050537,-0.18170274794101715,-0.7909324765205383,-0.5843030214309692,-0.3014935532372741,0.9123313658459868,-0.26619397851933657,63
16:30:33,-0.00486619770526886,0.0160980224609375,0.030371665954589844,0.03967634215950966,-0.7321770787239075,-0.5325823426246643,-0.18333497643470764,-0.8051419854164124,-0.5640342831611633,-0.31427010598168126,0.9359148809785783,-0.34272526120623803,63
16:30:33,-0.014727205038070679,-0.01627981662750244,0.051998794078826904,-0.04770596697926521,-0.6584717035293579,-0.5738824009895325,-0.17908932268619537,-0.8164964318275452,-0.5488722324371338,-0.3153945995903587,0.9553163172804027,-0.42825580948721065,63
16:30:33,-0.0002289116382598877,-0.015515387058258057,0.09387636184692383,-0.17374779284000397,-0.723453938961029,-0.5969365835189819,-0.16934135556221008,-0.8198238611221313,-0.5470030903816223,-0.30022269651221783,0.9611033703525106,-0.5326000819964724,63
16:30:34,-0.023688912391662598,-0.02390611171722412,0.05293285846710205,-0.07972488552331924,-0.6634894013404846,-0.5652875304222107,-0.16327635943889618,-0.824067234992981,-0.5424519181251526,-0.29237113798028436,0.9685536381318745,-0.6327489017906837,63
16:30:34,0.0004235804080963135,0.16494029760360718,0.01846456527709961,0.11945932358503342,-0.9004385471343994,-0.4062217175960541,-0.1589769870042801,-0.8290754556655884,-0.5360599160194397,-0.28830309917219094,0.9774521648924039,-0.7300392168425375,63
16:30:34,-0.045192062854766846,0.12748080492019653,-0.12417978048324585,0.39733806252479553,-1.2925506830215454,0.22177056968212128,-0.2073703557252884,-0.8477526307106018,-0.48817312717437744,-0.4016915276960126,1.0117336538245387,-0.7376095552950781,63
16:30:34,-0.04557862877845764,0.14985239505767822,0.024896085262298584,0.792360246181488,-0.27198925614356995,0.6102269291877747,-0.2809275984764099,-0.8651345372200012,-0.41547808051109314,-0.5945427202226826,1.0454185795518987,-0.6072745934897722,63
16:30:34,0.06098651885986328,-0.20085585117340088,-0.04385197162628174,-0.034782715141773224,0.3238685131072998,0.0638994425535202,-0.3026232123374939,-0.8742435574531555,-0.3796282708644867,-0.6730048348698545,1.0638754591851216,-0.5044817509078223,63
16:30:34,0.014006078243255615,0.0331873893737793,0.04559433460235596,0.041284359991550446,0.20943355560302734,0.29122287034988403,-0.29787904024124146,-0.8685709834098816,-0.39604613184928894,-0.6448643272054795,1.0523114381061125,-0.49959767357276585,63
16:30:34,-0.05173128843307495,0.007048964500427246,-0.02187478542327881,-0.19538463652133942,0.4148327708244324,0.5169558525085449,-0.323388934135437,-0.8535559177398682,-0.4084874391555786,-0.6696435248156942,1.0227727710710846,-0.4368660808102878,63
16:30:34,-0.03059813380241394,-0.09706556797027588,0.024442553520202637,-0.6644250750541687,0.2689855694770813,0.14947400987148285,-0.34093618392944336,-0.8204407095909119,-0.45895493030548096,-0.6389115151099907,0.96218145916739,-0.42550856747464855,63
16:30:34,0.03328007459640503,0.035800039768218994,0.07383692264556885,-0.843426525592804,0.4358573853969574,0.10825386643409729,-0.32733020186424255,-0.786588728427887,-0.5235773921012878,-0.5587288499450105,0.9052648207288801,-0.4721288419270641,63
16:30:34,0.08915314078330994,0.0007013082504272461,0.05960512161254883,0.009198593907058239,0.3821542263031006,0.34023091197013855,-0.3243807554244995,-0.768900454044342,-0.550971269607544,-0.5321015314198475,0.8771196438911395,-0.44323161422714075,63
16:30:35,0.02683645486831665,-0.04678916931152344,0.048982858657836914,0.19713068008422852,-0.016733258962631226,-0.028729025274515152,-0.3312472105026245,-0.7719468474388123,-0.5425617694854736,-0.5481221033908512,0.881898055549456,-0.40879378591230103,63
16:30:35,-0.009610593318939209,0.03162705898284912,-0.03987985849380493,0.1760733276605606,0.14373444020748138,0.017692802473902702,-0.3267825245857239,-0.7845059037208557,-0.5270329713821411,-0.5550260124167595,0.9018989302360366,-0.39439724368224915,63
16:30:35,-0.03562155365943909,-0.004831671714782715,-0.012248635292053223,-0.10202779620885849,0.2589646279811859,0.042984843254089355,-0.31661003828048706,-0.7848965525627136,-0.5326308012008667,-0.5363114980210322,0.9025291269996455,-0.3906999740380523,63
16:30:35,-0.05378925800323486,0.04304790496826172,-0.15468436479568481,-0.3213428258895874,0.09621859341859818,0.02050936222076416,-0.3059496283531189,-0.7537355422973633,-0.5816164016723633,-0.4842567221476145,0.8537279003117789,-0.4327175783650636,63
16:30:35,0.07313501834869385,-0.03158771991729736,0.248127281665802,1.0413146018981934,-0.16363029181957245,-0.33504873514175415,-0.2972995936870575,-0.7621533870697021,-0.5750958323478699,-0.4771206755505313,0.8666329021865917,-0.4453583212767309,63
16:30:35,0.08964240550994873,0.02713388204574585,0.2415364384651184,1.2628848552703857,-0.5688667297363281,-0.5723001956939697,-0.27329501509666443,-0.8417482376098633,-0.46558547019958496,-0.5308000215773877,1.0005133084060653,-0.4124882356032718,63
16:30:35,0.008568376302719116,0.052286386489868164,0.09215563535690308,0.09712738543748856,-1.6742132902145386,-0.6073838472366333,-0.26979660987854004,-0.882936954498291,-0.38422927260398865,-0.6121849732241182,1.0820814592662555,-0.45684639402368127,63
16:30:35,-0.15916401147842407,0.054927706718444824,-0.10798335075378418,0.1010584756731987,-1.0486708879470825,-0.43178486824035645,-0.26988038420677185,-0.9009589552879333,-0.33976078033447266,-0.6712707944090722,1.1219745837240611,-0.542935346164039,63
16:30:35,-0.14105930924415588,0.023777246475219727,-0.06068539619445801,-0.13809286057949066,-0.4215390682220459,-0.29756954312324524,-0.2647918164730072,-0.9072077870368958,-0.32689347863197327,-0.680823748551842,1.1365984925293102,-0.6209830343361029,63
16:30:35,0.019559800624847412,-0.005587458610534668,0.009510993957519531,-0.2141045331954956,-0.5380118489265442,-0.2269853949546814,-0.25345972180366516,-0.9116567969322205,-0.32348132133483887,-0.664621902993409,1.1472977744686461,-0.6814404946893049,63
16:30:36,-0.045318394899368286,0.03555583953857422,-0.06643617153167725,0.007832926698029041,-0.10197652131319046,-0.2538899779319763,-0.2518902122974396,-0.9094956517219543,-0.3307097554206848,-0.6509253322835373,1.142069229772242,-0.7194737364962909,63
16:30:36,-0.11895078420639038,0.0705265998840332,0.17901992797851562,-0.38355934619903564,-0.025319289416074753,-0.44641226530075073,-0.23744677007198334,-0.9007192850112915,-0.36376339197158813,-0.578306433379564,1.1214224411703906,-0.8173332155879454,63
16:30:36,-0.11240878701210022,-0.008115172386169434,-0.05739152431488037,-0.062468402087688446,-0.039596229791641235,-0.1198890283703804,-0.2251596748828888,-0.8936264514923096,-0.38824617862701416,-0.5255392557813257,1.1053613974677108,-0.9024769943966037,63
16:30:36,0.00476914644241333,0.01756727695465088,0.014214158058166504,0.13454054296016693,0.016300858929753304,0.07469377666711807,-0.2260197550058365,-0.8959017395973206,-0.38245949149131775,-0.5337488139008627,1.11045681416234,-0.89787405202229,63
16:30:36,0.044097900390625,0.02619779109954834,-0.0215378999710083,0.051934607326984406,-0.1075262799859047,0.08838561922311783,-0.23028390109539032,-0.8990089893341064,-0.3724946081638336,-0.5537094880713853,1.1175012585465414,-0.8816204521330911,63
16:30:36,0.04135429859161377,-0.012081801891326904,0.012557744979858398,-0.017753394320607185,-0.026524102315306664,0.007181571796536446,-0.2390758991241455,-0.8986020684242249,-0.36790895462036133,-0.5762511436466324,1.1165730190577947,-0.8624530592525596,63
16:30:36,-0.02312999963760376,-0.0065059661865234375,-0.03132516145706177,-0.002146737650036812,0.10200989991426468,0.051948778331279755,-0.2360999882221222,-0.8947634696960449,-0.37901854515075684,-0.557105525265923,1.107901185277679,-0.8797809776617033,63
16:30:36,0.026240825653076172,0.015784144401550293,-0.01908057928085327,0.09195099771022797,0.04546966403722763,0.05346704646945,-0.23844318091869354,-0.8954776525497437,-0.37585172057151794,-0.5653357499970654,1.109503220018778,-0.8615981178304358,63
16:30:36,0.01600825786590576,0.007387638092041016,0.0025643110275268555,0.04726289212703705,0.08005000650882721,0.020040910691022873,-0.23724384605884552,-0.8974725604057312,-0.3718312382698059,-0.5679227068982727,1.1140054939912467,-0.8510904143745344,63
16:30:36,-0.058773040771484375,0.028664112091064453,-0.003298938274383545,0.09956710785627365,0.093607097864151,-0.03813930228352547,-0.2332330048084259,-0.9007288813591003,-0.36645591259002686,-0.5667948417707108,1.1214445374828312,-0.8408307728305425,63
16:30:37,-0.015353679656982422,0.013613343238830566,0.007063388824462891,0.12455234676599503,0.12037292867898941,0.016505565494298935,-0.2290603369474411,-0.902799129486084,-0.36398521065711975,-0.5616942236897858,1.1262343361679457,-0.8353817179125087,63
16:30:37,0.016811609268188477,0.017724454402923584,-0.002995789051055908,-0.024551911279559135,0.014028116129338741,-0.022671930491924286,-0.228693887591362,-0.9004402160644531,-0.3700089156627655,-0.5536052559644979,1.120780499455879,-0.8414360919567381,63
16:30:37,-0.024450480937957764,0.01644819974899292,-0.015785694122314453,0.01579364761710167,-0.01044340431690216,-0.020676955580711365,-0.22565503418445587,-0.901620626449585,-0.36899876594543457,-0.5488567361016706,1.1235019235332098,-0.8473628447056641,63
16:30:37,-0.026830315589904785,-0.0014262199401855469,0.06555891036987305,0.06263838708400726,0.055413104593753815,0.052435602992773056,-0.22879894077777863,-0.9012025594711304,-0.368083119392395,-0.5561476547949321,1.1225362486828436,-0.8386851245379255,63
16:30:37,0.006320953369140625,0.023176074028015137,-0.010767221450805664,-0.036036260426044464,0.03963121399283409,0.012746247462928295,-0.23041027784347534,-0.8985218405723572,-0.37358999252319336,-0.5526420925430257,1.116390229624787,-0.8391029309654771,63
16:30:37,0.02763742208480835,0.0020321011543273926,0.007220625877380371,0.12525516748428345,0.06268353760242462,0.04137496277689934,-0.2307305932044983,-0.8999609351158142,-0.36991041898727417,-0.5576979183532489,1.119679897643727,-0.8274431549017544,63
16:30:37,0.014663159847259521,0.012793302536010742,-0.008896589279174805,0.18750229477882385,0.04424300789833069,0.05304120481014252,-0.23394587635993958,-0.9043593406677246,-0.35693639516830444,-0.5801811258975869,1.1298761773047423,-0.7971118530664517,63
16:30:37,-0.015964895486831665,0.010936856269836426,0.016801178455352783,0.12609751522541046,0.028625700622797012,-0.020729687064886093,-0.23357625305652618,-0.9090496301651001,-0.3450666666030884,-0.5950550475844305,1.1409975217711221,-0.776217818386689,63
16:30:37,-0.004965305328369141,0.0031332969665527344,0.027811169624328613,-0.09540238231420517,0.07906144857406616,-0.11248037964105606,-0.22647890448570251,-0.9115610122680664,-0.3431677222251892,-0.5833490695657202,1.147064747119897,-0.7822117123526761,63
16:30:37,0.016455084085464478,-0.005992770195007324,0.01282954216003418,-0.18584759533405304,0.05249055474996567,-0.2128666490316391,-0.2073414921760559,-0.9091179966926575,-0.36126717925071716,-0.5210285693564829,1.1411616274282756,-0.843560716340986,63
16:30:38,0.030080169439315796,0.010579824447631836,-0.011754870414733887,0.0532723143696785,0.002989846281707287,-0.07270607352256775,-0.19273796677589417,-0.9098677039146423,-0.3674136698246002,-0.4831179129931599,1.1429650791580983,-0.8824370598997182,63
16:30:38,0.015691488981246948,0.011993408203125,-0.013674914836883545,0.009042798541486263,-0.06580892205238342,0.009126745164394379,-0.19113610684871674,-0.9112960696220398,-0.36470046639442444,-0.4827338576108101,1.146420871473313,-0.8866454989326179,63
16:30:38,-0.00018996000289916992,-0.012879014015197754,0.028419971466064453,-0.039065875113010406,-0.001915164291858673,-0.039693523198366165,-0.19228342175483704,-0.9135538339614868,-0.3583945333957672,-0.4924297780093187,1.1519378413383343,-0.8771170057547493,63
16:30:38,0.01908513903617859,0.011280417442321777,-0.005280256271362305,-0.06270915269851685,-0.021488066762685776,-0.0156001728028059,-0.18871594965457916,-0.9125658273696899,-0.36278077960014343,-0.4796710341708963,1.149515244506512,-0.8905224595996974,63
16:30:38,-0.003351658582687378,0.01147449016571045,-0.005776584148406982,-0.00478193536400795,-0.0743667259812355,-0.05622003972530365,-0.18887731432914734,-0.9127900004386902,-0.36213219165802,-0.48075441606321306,1.150063825260335,-0.8940957888914532,63
16:30:38,0.005941808223724365,0.006125926971435547,0.005003094673156738,0.010742961429059505,-0.02644260972738266,-0.10424881428480148,-0.18301892280578613,-0.9148114919662476,-0.36003345251083374,-0.4702962569637174,1.1550409555363328,-0.9106937499132433,63
16:30:38,0.007395148277282715,0.013467788696289062,-0.0050109028816223145,-0.016989335417747498,-0.008164269849658012,-0.04585821181535721,-0.17754466831684113,-0.9162326455116272,-0.3591596484184265,-0.4591041945758292,1.158573792296378,-0.9236211698586342,63
16:30:38,0.017253011465072632,0.004736065864562988,0.004642486572265625,-0.03553931415081024,-0.02030775509774685,-0.03262602910399437,-0.17318135499954224,-0.9158322215080261,-0.36229753494262695,-0.4459002872227173,1.1575755695608834,-0.9388822227542439,63
16:30:38,0.015339791774749756,0.01419830322265625,-0.01215672492980957,0.013439412228763103,-0.06471490114927292,0.0430290512740612,-0.17558635771274567,-0.9154524207115173,-0.36209994554519653,-0.4515039710969434,1.1566307785690113,-0.9373086124724644,63
16:30:38,-0.005666762590408325,0.0049898624420166016,0.012368202209472656,0.029902808368206024,-0.0452842116355896,0.09279580414295197,-0.18622654676437378,-0.9152010083198547,-0.357388973236084,-0.4803652902724256,1.1560064472236187,-0.9099552427717021,63
16:30:39,-0.01624089479446411,0.007311701774597168,0.013404428958892822,-0.02278010919690132,0.08752097189426422,-0.1392856240272522,-0.1825493574142456,-0.9160729050636292,-0.357052206993103,-0.4726212908677005,1.1581753085889672,-0.9157835451801452,63
16:30:39,0.02155911922454834,-0.002331256866455078,0.016164064407348633,-0.22646905481815338,0.0544237419962883,-0.03106728009879589,-0.17213155329227448,-0.9141813516616821,-0.36693763732910156,-0.43862593451072057,1.15348350616477,-0.9428984408134422,63
16:30:39,0.010126322507858276,0.039824068546295166,-0.043528079986572266,-0.008287986740469933,-0.025467626750469208,0.027768339961767197,-0.1724785715341568,-0.9075846672058105,-0.38280707597732544,-0.4233217110152107,1.1374951934219621,-0.9602640188022175,63
16:30:39,0.005690276622772217,0.005087912082672119,0.005573630332946777,0.0152524933218956,-0.02410515584051609,0.011910547502338886,-0.17426797747612,-0.9078212380409241,-0.38143298029899597,-0.428558149326698,1.1380590361764054,-0.9571185838005725,63
16:30:39,0.001094043254852295,0.012096047401428223,-0.004270493984222412,0.11854266375303268,0.02481232024729252,-0.009803269989788532,-0.17406627535820007,-0.9099158048629761,-0.3765024244785309,-0.43305554903790994,1.143081045590419,-0.9523009761426016,63
16:30:39,0.009738117456436157,0.005475521087646484,0.004551112651824951,0.048076219856739044,0.009075168520212173,-0.05083858594298363,-0.17001502215862274,-0.9121299386024475,-0.3729797601699829,-0.42769082174653517,1.1484505836079912,-0.9573368092379033,63
16:30:39,0.012736499309539795,0.010000348091125488,-0.006858944892883301,0.04499627277255058,0.0015259068459272385,-0.010918602347373962,-0.16655899584293365,-0.9136792421340942,-0.37074029445648193,-0.4222388213591956,1.1522463905266576,-0.9624716500852877,63
16:30:39,0.011598765850067139,0.013362884521484375,0.001654982566833496,-0.008115414530038834,-0.01820838451385498,0.10407163202762604,-0.17140258848667145,-0.9136539101600647,-0.3685886561870575,-0.435277446121183,1.1521840671989891,-0.9490344578688847,63
16:30:39,0.007393002510070801,0.011386275291442871,-0.003175795078277588,0.11102961748838425,-0.013340124860405922,0.08063102513551712,-0.18096038699150085,-0.913662314414978,-0.36397063732147217,-0.46139228255763753,1.1522046607960788,-0.9224758519478641,63
16:30:39,0.00751909613609314,0.0019913315773010254,0.008575677871704102,0.06277607381343842,0.0013741068542003632,0.028968093916773796,-0.18563365936279297,-0.9161085486412048,-0.35536661744117737,-0.4813847957445404,1.1582641905752715,-0.9013086410929277,63
16:30:40,0.011944562196731567,0.005711555480957031,-0.004674732685089111,0.18027925491333008,-0.005887534469366074,0.0368257500231266,-0.18908248841762543,-0.9208050966262817,-0.34112462401390076,-0.5061320747078147,1.1701397748929039,-0.8770546960345048,63
16:30:40,0.0073671042919158936,0.003770172595977783,0.008257269859313965,0.23284633457660675,0.006195227615535259,0.04281839355826378,-0.19309571385383606,-0.9268287420272827,-0.32202863693237305,-0.5401421074910174,1.185877009805098,-0.8415806251283314,63
16:30:40,0.0038907229900360107,-0.001905679702758789,0.02533113956451416,0.05073591694235802,-0.014451727271080017,0.013108436018228531,-0.19624164700508118,-0.9315593242645264,-0.306082546710968,-0.5701212410322706,1.1986781744541954,-0.8098153799757,63
16:30:40,0.006743282079696655,-0.0011267662048339844,0.006016135215759277,0.15362794697284698,-0.013177139684557915,0.015077845193445683,-0.19808702170848846,-0.9362444877624512,-0.29018568992614746,-0.5989671480328179,1.211784545160817,-0.7783698970570729,63
16:30:40,0.006982713937759399,0.002008795738220215,0.010424494743347168,0.21356797218322754,0.014882457442581654,0.023597562685608864,-0.19998979568481445,-0.9419286847114563,-0.26976773142814636,-0.6379360625046073,1.2283280582742702,-0.7348481780036927,63
16:30:40,0.012880504131317139,0.00880652666091919,0.002134561538696289,0.32821840047836304,0.02687174454331398,0.05596109479665756,-0.20259156823158264,-0.9487869739532471,-0.24240489304065704,-0.6961669077861392,1.2493737131384919,-0.670540782771285,63
16:30:40,0.00923416018486023,-0.010324537754058838,0.013677835464477539,0.25537270307540894,-0.0012709442526102066,0.09348743408918381,-0.20955005288124084,-0.9548022747039795,-0.2108117789030075,-0.7823966443669572,1.2689939079327706,-0.5786812943153111,63
16:30:40,0.00012177228927612305,0.011082768440246582,0.011653304100036621,0.12375446408987045,-0.0034270398318767548,0.05039695277810097,-0.21676449477672577,-0.9556865096092224,-0.19918955862522125,-0.827625135890504,1.2719830558923126,-0.5312970491914202,63
16:30:40,0.013015270233154297,-0.004377484321594238,0.0057329535484313965,0.03572660684585571,-0.005970625206828117,0.03505954146385193,-0.2207925170660019,-0.9563848376274109,-0.19125552475452423,-0.8569591354756244,1.274364464984761,-0.5005758423608823,63
16:30:40,0.0004969537258148193,0.001900792121887207,0.015127122402191162,0.004354037344455719,0.00770230870693922,0.007445225492119789,-0.22312092781066895,-0.9563608169555664,-0.18865661323070526,-0.8688999763491272,1.27428207259906,-0.48728639896373166,63
16:30:41,0.004081457853317261,-0.0061054229736328125,0.009801685810089111,-0.0664205327630043,0.0075537050142884254,-0.016392730176448822,-0.222707599401474,-0.9561668634414673,-0.19012154638767242,-0.8641683430667935,1.2736191290495718,-0.49139482643468796,63
16:30:41,0.0048812925815582275,0.0014106035232543945,0.009028196334838867,-0.04675495624542236,0.016354385763406754,-0.014045685529708862,-0.22150838375091553,-0.9553360939025879,-0.195619598031044,-0.8473830307400189,1.270794969157883,-0.5087329610739014,63
16:30:41,0.0018322169780731201,0.0023039579391479492,0.003075122833251953,-0.072391077876091,0.005476705729961395,-0.018927259370684624,-0.21983246505260468,-0.9542145729064941,-0.2028505653142929,-0.8255529959048662,1.2670229356282672,-0.5317630851029753,63
16:30:41,0.005964994430541992,0.0021106600761413574,-0.002427816390991211,-0.013064900413155556,-0.012207748368382454,0.015893038362264633,-0.21947915852069855,-0.953502357006073,-0.20654886960983276,-0.8157396375411545,1.264650785989803,-0.5422298186747847,63
16:30:41,0.0134182870388031,0.0009442567825317383,0.003843247890472412,-0.011518934741616249,-0.02825489267706871,0.07624746114015579,-0.22452138364315033,-0.9523507952690125,-0.20644211769104004,-0.8273243998590035,1.2608527053360612,-0.5311983944403778,63
16:30:41,-0.00036209821701049805,0.005847454071044922,0.004810810089111328,0.051455236971378326,0.0012822281569242477,0.048399314284324646,-0.2304246574640274,-0.9514093995094299,-0.2042667120695114,-0.8455015954033903,1.2577810131775906,-0.5135261825626019,63
16:30:41,0.015827089548110962,-0.011003851890563965,-0.007190108299255371,0.11450930684804916,0.04413115978240967,0.10298559814691544,-0.23674125969409943,-0.9516779780387878,-0.19560804963111877,-0.8802514755474126,1.2586544921002403,-0.4760119219575596,63
16:30:41,0.005912601947784424,0.00014722347259521484,-0.0015459060668945312,0.010617793537676334,-0.01321389153599739,0.08102676272392273,-0.2461138516664505,-0.9511562585830688,-0.18635956943035126,-0.9226975702226193,1.256960051252466,-0.4273449368349306,63
16:30:41,0.00044354796409606934,0.0004787445068359375,0.0035883188247680664,-0.006613658741116524,-0.055964548140764236,-0.007657294627279043,-0.25056278705596924,-0.9510448575019836,-0.18091988563537598,-0.9454218204044357,1.256599400479173,-0.40667061292682977,63
16:30:41,-0.007891595363616943,0.008245468139648438,0.018901586532592773,0.013085211627185345,-0.004585780203342438,-0.007215742953121662,-0.25123026967048645,-0.951548159122467,-0.1773124784231186,-0.9562038458207088,1.2582320354256462,-0.39749508521700316,63
16:30:42,-0.01116645336151123,0.006547451019287109,-0.017620086669921875,0.02896510809659958,-0.010898804292082787,-0.00970473326742649,-0.251617431640625,-0.9516962170600891,-0.17596258223056793,-0.960522927084456,1.2587138571515912,-0.3937683107579055,63
16:30:42,1.8805265426635742e-05,0.008291423320770264,0.00539708137512207,-0.03163645416498184,-0.020509887486696243,-0.05435182899236679,-0.24922241270542145,-0.9525246024131775,-0.17488612234592438,-0.9589121609187209,1.2614232379405246,-0.3969898210931968,63
16:30:42,-0.02063465118408203,0.005173087120056152,-0.00261080265045166,-0.10879701375961304,-0.006930427625775337,-0.050289180129766464,-0.24414832890033722,-0.9518022537231445,-0.1856461465358734,-0.9206834106621351,1.2590592774047042,-0.4382682154216867,63
16:30:42,0.008108079433441162,0.012342572212219238,0.0077075958251953125,-0.029407653957605362,0.0015594623982906342,-0.03358849510550499,-0.24000827968120575,-0.9515858292579651,-0.19204357266426086,-0.8959615278633019,1.2583545597382,-0.4641912791608792,65
16:30:42,0.006812781095504761,0.009756982326507568,0.0009300708770751953,0.011755228042602539,0.0062487563118338585,-0.002203673589974642,-0.23863662779331207,-0.9514260292053223,-0.19452832639217377,-0.8868763749638574,1.257835042860181,-0.47272858881724816,65
16:30:42,0.0029794275760650635,0.0011719465255737305,-0.002148747444152832,-0.00047214142978191376,-0.0010304618626832962,-0.003454560413956642,-0.2382059097290039,-0.9516451954841614,-0.19398264586925507,-0.8873672775540637,1.2585477689416327,-0.47205383406651996,65
16:30:42,-0.002860456705093384,0.008658885955810547,-0.004181504249572754,-0.022558536380529404,0.003876945935189724,0.0003156766761094332,-0.23726406693458557,-0.9512890577316284,-0.19686314463615417,-0.878193285276508,1.2573905386497908,-0.48170128654563626,65
16:30:42,0.002351701259613037,0.008958816528320312,-0.0026775598526000977,-0.018671920523047447,0.0013389531522989273,-0.017841223627328873,-0.23608285188674927,-0.9510855078697205,-0.19925212860107422,-0.8698003334890189,1.256730877633025,-0.4904118020517801,65
16:30:42,0.0034870803356170654,0.004776179790496826,-0.0026800036430358887,-0.029855864122509956,0.005055660381913185,-0.00446443073451519,-0.23473092913627625,-0.9508086442947388,-0.2021491378545761,-0.8598386964462951,1.2558360039442167,-0.5005712770137491,65
16:30:42,0.002292931079864502,0.007533669471740723,0.004570305347442627,-0.015159210190176964,-0.0011351238936185837,-0.006986711174249649,-0.23457437753677368,-0.9506517052650452,-0.2030670940876007,-0.8572675397269471,1.25532973414165,-0.5029463592437765,65
16:30:43,0.001769930124282837,0.008070826530456543,-0.0035996437072753906,-0.005412040278315544,0.005032490938901901,-0.0009344108402729034,-0.23397523164749146,-0.9506703019142151,-0.20367074012756348,-0.8545321086897587,1.2553896383856291,-0.5056171349615965,65
16:30:43,0.003749847412109375,0.008764088153839111,-0.0015572309494018555,0.008112289942800999,-0.0023170355707406998,-0.005903603043407202,-0.23352883756160736,-0.9508750438690186,-0.20322617888450623,-0.8546685267900056,1.2560503617679024,-0.5054343669087823,65
16:30:43,0.002544492483139038,0.007346510887145996,0.007102072238922119,-0.02367466874420643,-0.007186891511082649,-0.010661606676876545,-0.23287279903888702,-0.9509528279304504,-0.20361517369747162,-0.8523276841796849,1.2563017324002634,-0.5083365412593325,65
16:30:43,0.001367807388305664,0.007128000259399414,-0.008140206336975098,0.01422824151813984,0.00018500536680221558,-0.0035032962914556265,-0.23206239938735962,-0.9511767625808716,-0.2034943550825119,-0.8508940524566767,1.257026432176197,-0.5100651004015754,65
16:30:43,-0.0006152093410491943,0.009301960468292236,-0.005719661712646484,0.01429215632379055,-0.0034222453832626343,-0.007189643569290638,-0.23158994317054749,-0.9513974189758301,-0.20300070941448212,-0.8510878164317693,1.2577420856812793,-0.5103861682621975,65
16:30:43,-0.000697016716003418,0.007177829742431641,0.0055844783782958984,-0.03358694911003113,-0.015884507447481155,-0.007035446353256702,-0.23158442974090576,-0.9512721300125122,-0.2035931497812271,-0.8496311756583051,1.2573355688551116,-0.5128169612347077,65
16:30:43,0.0045104920864105225,0.006658792495727539,-0.0005192160606384277,-0.021259447559714317,0.00015464425086975098,-0.006968601606786251,-0.23084089159965515,-0.9512104392051697,-0.20472250878810883,-0.8452910304761301,1.257135595389574,-0.5178083953350722,65
16:30:43,0.0028404593467712402,0.009609460830688477,-0.005504965782165527,0.002050137147307396,-0.0009641479700803757,-0.0071150753647089005,-0.23011687397956848,-0.9512006640434265,-0.20558103919029236,-0.8416526239758425,1.2571038846934517,-0.5217070323140273,65
16:30:43,-0.0004382133483886719,0.009623527526855469,-0.007667362689971924,0.005667509511113167,0.002757352776825428,-0.0010614439379423857,-0.22976790368556976,-0.9512147903442383,-0.20590580999851227,-0.8401140577074374,1.2571496013462224,-0.5231709188399999,65
16:30:43,0.0025186240673065186,0.009593367576599121,-0.003219425678253174,-0.02132469415664673,-0.0009633488953113556,0.0002435052301734686,-0.22981025278568268,-0.9511995911598206,-0.20592889189720154,-0.8401499471102352,1.2571004869986766,-0.5229058107321521,65
16:30:44,0.0011575520038604736,0.010654091835021973,-0.0013161897659301758,0.0005963165313005447,0.00011389888823032379,0.006254792213439941,-0.22992928326129913,-0.951283872127533,-0.20540601015090942,-0.8416706072410628,1.2573735450096066,-0.5210639476849352,65
16:30:44,0.002230435609817505,0.007550537586212158,-0.0016505718231201172,-0.0066352300345897675,0.0012438800185918808,-0.004558173939585686,-0.23001042008399963,-0.9511253833770752,-0.20604798197746277,-0.840295303678876,1.2568600167447008,-0.5225101299119719,65
16:30:44,0.0011630058288574219,0.007369577884674072,-0.00549471378326416,-0.010395612567663193,6.756000220775604e-05,0.0026882868260145187,-0.22988902032375336,-0.9509292244911194,-0.20708663761615753,-0.8375331304655196,1.256225351832868,-0.5255122890896757,65
16:30:44,-0.003928959369659424,0.009818553924560547,-0.01028454303741455,-0.007896769791841507,0.006196025758981705,0.0003172745928168297,-0.22966454923152924,-0.9504177570343018,-0.20966696739196777,-0.8308849526721128,1.2545764331362457,-0.5326388662046032,65
16:30:44,-0.0008574724197387695,0.014429032802581787,-0.011418461799621582,0.010435633361339569,0.0013956781476736069,0.004996715113520622,-0.22977587580680847,-0.9501151442527771,-0.21091316640377045,-0.8281748047395122,1.2536048198039653,-0.5354187858586241,65
16:30:44,0.0004057586193084717,0.014347195625305176,-0.004645228385925293,0.006703479215502739,-0.0010592229664325714,0.008619146421551704,-0.2301083207130432,-0.950048565864563,-0.2108505368232727,-0.8290429251887543,1.2533915415644352,-0.5345321311777657,65
16:30:44,0.00016763806343078613,0.011295080184936523,-0.007709026336669922,-0.005438139662146568,0.0013549309223890305,0.00024004303850233555,-0.22983971238136292,-0.9499263763427734,-0.21169273555278778,-0.826475005526124,1.2530002387025987,-0.5372579483623559,65
16:30:44,6.073713302612305e-05,0.010719537734985352,-0.006224870681762695,-0.009136203676462173,7.155351340770721e-05,0.00026241340674459934,-0.22973275184631348,-0.9498388767242432,-0.21220055222511292,-0.8250489468122166,1.2527202711284222,-0.5386660331658112,65
16:30:44,-0.001170724630355835,0.01061105728149414,-0.0059680938720703125,-0.009064564481377602,0.0024729277938604355,-0.005746476352214813,-0.2294778972864151,-0.949730396270752,-0.21296082437038422,-0.8227127158845834,1.252373542880171,-0.5408529054721629,65
16:30:44,0.0002561807632446289,0.010135412216186523,-0.005426883697509766,-0.010225437581539154,-0.0011335257440805435,-0.00942776445299387,-0.22893644869327545,-0.9497429728507996,-0.21348674595355988,-0.8203046048356863,1.2524137714638548,-0.5433895131010827,65
16:30:45,0.0018839836120605469,0.009197115898132324,-0.010896682739257812,-0.00412200391292572,0.006149687804281712,-0.008151577785611153,-0.2280617654323578,-0.9497658610343933,-0.21431902050971985,-0.8164535726887399,1.2524868971938639,-0.547427392906097,65
16:30:45,0.00010132789611816406,0.010971546173095703,-0.008294165134429932,0.0008040443062782288,0.000142659991979599,-0.008270088583230972,-0.2272709310054779,-0.9495871663093567,-0.21594493091106415,-0.810946762216999,1.2519164631165156,-0.5532394866600187,65
16:30:45,-0.0030935704708099365,0.010913252830505371,-0.010141134262084961,-0.006626706570386887,-0.0024288855493068695,-0.00580453360453248,-0.22651737928390503,-0.94951331615448,-0.21705837547779083,-0.8067193625906678,1.2516809728019498,-0.5576860947120493,65
16:30:45,0.004120945930480957,0.010474205017089844,-0.007642209529876709,-0.005439469590783119,-0.0036595333367586136,-0.0034007644280791283,-0.22588886320590973,-0.9495624899864197,-0.21749737858772278,-0.804321819229215,1.2518376815332801,-0.5602670634849257,65
16:30:45,-0.0014622509479522705,0.006532073020935059,-0.00555109977722168,-0.02734583429992199,0.0013884883373975754,-0.009352130815386772,-0.2252190113067627,-0.9495569467544556,-0.21821536123752594,-0.801190953103867,1.2518200197819385,-0.5637323487128802,65
16:30:45,-0.0011923015117645264,0.013060808181762695,-0.012412428855895996,-0.010240085422992706,-0.007258797064423561,-0.00948768574744463,-0.22493967413902283,-0.9491887092590332,-0.22009730339050293,-0.7962785650439851,1.2506478700000898,-0.5688753695571921,65
16:30:45,-0.001987546682357788,0.010480999946594238,-0.007687568664550781,-0.01892411895096302,-3.630295395851135e-05,-0.003289977088570595,-0.22415970265865326,-0.9490658044815063,-0.22141923010349274,-0.7915484674762768,1.2502576361885147,-0.5740521667564475,65
16:30:45,-0.002172112464904785,0.009709417819976807,-0.01202380657196045,-0.009093327447772026,0.004918242804706097,-0.003301694756373763,-0.22392939031124115,-0.9487672448158264,-0.22292707860469818,-0.7876411711010585,1.2493113818601902,-0.5779964049383237,65
16:30:45,0.00042688846588134766,0.014411091804504395,-0.011286020278930664,-0.007897567003965378,1.483038067817688e-05,-0.002144285012036562,-0.2235986441373825,-0.9485706686973572,-0.2240923047065735,-0.784295490327835,1.248689730730774,-0.5811777842714486,65
16:30:45,0.0032999813556671143,0.012556672096252441,-0.009225010871887207,0.01281916256994009,-0.0061943307518959045,0.002570575103163719,-0.22352682054042816,-0.9486846923828125,-0.22368131577968597,-0.7850526813299664,1.2490501810458283,-0.5804289322473478,65
16:30:46,-6.636977195739746e-05,0.009709477424621582,-0.00880664587020874,0.00315961055457592,0.0011791642755270004,-0.005789886228740215,-0.22360889613628387,-0.9487823843955994,-0.22318418323993683,-0.7863487372814911,1.2493592211986055,-0.5792542212441308,65
16:30:46,0.0006850659847259521,0.013314425945281982,-0.008807957172393799,0.014133166521787643,-0.01230601780116558,-0.0047568464651703835,-0.22338378429412842,-0.9489541053771973,-0.22267933189868927,-0.7869774446159521,1.2499032262032752,-0.5788022483742985,65
16:30:46,-0.0018905699253082275,0.013714075088500977,-0.010916948318481445,-0.0005051661282777786,-0.0048246681690216064,-0.004662570543587208,-0.22326485812664032,-0.9493536949157715,-0.2210892140865326,-0.7902943120633685,1.251172591973707,-0.5758402145856216,65
16:30:46,-4.7326087951660156e-05,0.012151718139648438,-0.015082836151123047,0.06672154366970062,-0.017191853374242783,0.0010104957036674023,-0.22362785041332245,-0.9502323865890503,-0.21690842509269714,-0.8006498253873017,1.253981015538662,-0.5659473536081138,65
16:30:46,-0.0007205009460449219,0.014068424701690674,-0.009315788745880127,0.016442392021417618,-2.2720545530319214e-05,0.008648175746202469,-0.22400741279125214,-0.9507142305374146,-0.21439042687416077,-0.807331307071955,1.2555312982053803,-0.5595802793101693,65
16:30:46,-0.0030300915241241455,0.01598954200744629,-0.016010165214538574,0.006922123953700066,-0.002311442047357559,-0.008319356478750706,-0.22410869598388672,-0.9506514668464661,-0.21456272900104523,-0.8071558170643585,1.255328835051683,-0.5597378220892247,65
16:30:46,-0.0019342303276062012,0.017057418823242188,-0.012176692485809326,-0.0005914513021707535,0.0025112759321928024,0.002671775408089161,-0.22375497221946716,-0.9507580399513245,-0.21445943415164948,-0.8066072936067022,1.2556726276163481,-0.5603027681996281,65
16:30:46,-0.0004699528217315674,0.013090848922729492,-0.013830065727233887,0.009324828162789345,-0.006051318719983101,-0.007135848049074411,-0.223723903298378,-0.9506977200508118,-0.21475915610790253,-0.8058402159541204,1.2554779581139501,-0.5609749698441776,65
16:30:46,0.00032448768615722656,0.010287046432495117,-0.013779819011688232,0.001916179433465004,-0.0035476814955472946,-0.0010486606042832136,-0.22354193031787872,-0.950839638710022,-0.21432049572467804,-0.8064551642226366,1.2559359908141314,-0.5604153337741435,65
16:30:46,-0.0018813610076904297,0.012878775596618652,-0.006548285484313965,-0.01164250448346138,-0.005006827414035797,-0.0009282855316996574,-0.2233654111623764,-0.9510049223899841,-0.21377025544643402,-0.807344681356174,1.2564700933176984,-0.5598641837073594,65
16:30:47,-0.0014847218990325928,0.01589047908782959,-0.01106482744216919,-0.0005656201392412186,-0.0011590924113988876,0.00021500908769667149,-0.22322794795036316,-0.9510714411735535,-0.2136179357767105,-0.8073932272722654,1.2566852892890321,-0.5599617860891716,65
16:30:47,-0.0027352571487426758,0.015720367431640625,-0.01337343454360962,-0.00423811748623848,0.0024018213152885437,-0.0021163220517337322,-0.22293870151042938,-0.9508858323097229,-0.2147427797317505,-0.8041217391077924,1.2560852620987795,-0.5634616491846165,65
16:30:47,-0.001997917890548706,0.015161395072937012,-0.01043933629989624,-0.0004641544073820114,-0.0035364963114261627,-0.005880167242139578,-0.22271472215652466,-0.950830340385437,-0.21522021293640137,-0.8025097830867669,1.2559059928554341,-0.5652099763922678,65
16:30:47,-0.002971470355987549,0.013241171836853027,-0.014899492263793945,-0.0005429815500974655,0.0024601444602012634,-0.002150676678866148,-0.22268728911876678,-0.9508482813835144,-0.21516960859298706,-0.8025657305854934,1.2559639112741383,-0.5651435009289265,64
16:30:47,0.00131148099899292,0.014674663543701172,-0.01350933313369751,0.005531156435608864,-0.002507183700799942,-0.0009943321347236633,-0.22256045043468475,-0.9508016109466553,-0.21550694108009338,-0.8014981898082713,1.2558133051673368,-0.5661676189762742,64
16:30:47,0.000629037618637085,0.01671922206878662,-0.012767374515533447,0.018949758261442184,0.0024329805746674538,0.005030803848057985,-0.22238151729106903,-0.9508931040763855,-0.21528759598731995,-0.8016051527852992,1.2561087458162856,-0.5660285721192508,64
16:30:47,-0.0023403167724609375,0.017390429973602295,-0.011679649353027344,0.008175673894584179,-0.004757555201649666,-0.010769198648631573,-0.2218688279390335,-0.9510912895202637,-0.21494102478027344,-0.8012568414575789,1.2567495435301563,-0.566600631171476,64
16:30:47,-0.0011712312698364258,0.014735937118530273,-0.009748399257659912,0.0030781161040067673,-0.0025639086961746216,-0.0021754438057541847,-0.22158832848072052,-0.9513817429542542,-0.21394255757331848,-0.8029514184835834,1.2576911489774836,-0.5649936449374651,64
16:30:47,-0.0010375380516052246,0.01666581630706787,-0.013575315475463867,0.006698952056467533,0.0012159161269664764,0.005069419275969267,-0.22169148921966553,-0.9513432383537292,-0.21400661766529083,-0.8030344008340482,1.257566337486862,-0.5648137734070157,64
16:30:47,-0.001974940299987793,0.01453852653503418,-0.015283465385437012,-0.01404840499162674,0.006022654473781586,-0.0020207143388688564,-0.22171540558338165,-0.9511690735816956,-0.21475517749786377,-0.8013434158266828,1.2570015237840417,-0.5664145688070851,64
